SensorId, TimeStamp (s), FrameNumber, AccX (g), AccY (g), AccZ (g), GyroX (deg/s), GyroY (deg/s), GyroZ (deg/s), MagX (uT), MagY (uT), MagZ (uT), EulerX (deg), EulerY (deg), EulerZ (deg), QuatW, QuatX, QuatY, QuatZ, LinAccX (g), LinAccY (g), LinAccZ (g), Pressure (kPa), Altitude (m), Temperature (degC), HeaveMotion (m)
2, 0.0000, 0, -0.9473, 0.4139, -0.1170, -9.9725, -4.0666, -25.2268, -37.4627, 40.8955, 18.3333, -73.3876, -69.0467, 78.8437, -0.7254, -0.0917, -0.6637, 0.1579, -0.0134, 0.0712, -0.0148, 1003.5400, 0.0000, 0.0000, 0.0000
2, 0.0100, 1, -0.9532, 0.4198, -0.1231, -5.3480, -4.1464, -24.8930, -37.0149, 42.2388, 18.3333, -73.3792, -69.2719, 78.7791, -0.7254, -0.0907, -0.6642, 0.1562, -0.0180, 0.0807, -0.0218, 1003.5400, 0.0000, 0.0000, 0.0000
2, 0.0198, 2, -0.9455, 0.4375, -0.1186, 0.1065, -4.2295, -23.8959, -40.7463, 41.9403, 18.6667, -73.3530, -69.4843, 78.7598, -0.7254, -0.0894, -0.6647, 0.1550, -0.0089, 0.1017, -0.0182, 1003.5400, 0.0000, 0.0000, 0.0000
2, 0.0298, 3, -0.9416, 0.4433, -0.1105, 4.3139, -5.4522, -22.9093, -38.0597, 40.1493, 18.5000, -73.3070, -69.6901, 78.7731, -0.7253, -0.0878, -0.6652, 0.1542, -0.0038, 0.1109, -0.0108, 1003.5400, 0.0000, 0.0000, 0.0000
1, 0.0000, 0, 0.0589, 0.9809, 0.3133, -4.1667, -8.9460, 2.5757, 57.1642, 38.6567, -9.5000, -109.6575, 1.8866, 79.6913, 0.4336, 0.6336, 0.5164, -0.3794, 0.0259, 0.0397, -0.0229, 1005.4000, 0.0000, 0.0000, 0.0000
2, 0.0398, 4, -0.9454, 0.4276, -0.1128, 10.3096, -6.1831, -20.2994, -35.3731, 40.2985, 18.5000, -73.2240, -69.8746, 78.8097, -0.7253, -0.0860, -0.6655, 0.1538, -0.0065, 0.0982, -0.0135, 1003.5400, 0.0000, 0.0000, 0.0000
2, 0.0498, 5, -0.9395, 0.4257, -0.1087, 15.2688, -6.5522, -18.8416, -39.2537, 40.4478, 18.6667, -73.1244, -70.0479, 78.8803, -0.7252, -0.0839, -0.6659, 0.1538, 0.0005, 0.0991, -0.0097, 1003.5400, 0.0000, 0.0000, 0.0000
2, 0.0598, 6, -0.9394, 0.4198, -0.1088, 19.7226, -6.9229, -16.5677, -37.3134, 41.0448, 18.6667, -72.9964, -70.2073, 78.9660, -0.7251, -0.0816, -0.6662, 0.1542, 0.0015, 0.0960, -0.0098, 1003.5400, 0.0000, 0.0000, 0.0000
1, 0.0100, 1, 0.0511, 0.9752, 0.2909, -3.1034, -8.3548, 1.1111, 54.6269, 40.0000, -9.6667, -109.6569, 1.9501, 79.7381, 0.4331, 0.6336, 0.5164, -0.3799, 0.0171, 0.0340, -0.0453, 1005.4000, 0.0000, 0.0000, 0.0000
1, 0.0200, 2, 0.0550, 0.9694, 0.2868, -2.3438, -7.4235, 0.8435, 54.1791, 39.8507, -9.3333, -109.6356, 2.0012, 79.7752, 0.4329, 0.6335, 0.5163, -0.3804, 0.0201, 0.0281, -0.0490, 1005.4000, 0.0000, 0.0000, 0.0000
1, 0.0300, 3, 0.0491, 0.9518, 0.2926, -2.7077, -6.0113, 1.3448, 57.1642, 38.0597, -9.6667, -109.6192, 2.0447, 79.7963, 0.4327, 0.6335, 0.5162, -0.3808, 0.0135, 0.0104, -0.0429, 1005.4000, 0.0000, 0.0000, 0.0000
2, 0.0698, 7, -0.9354, 0.4139, -0.1128, 22.1622, -7.6446, -15.1554, -37.1642, 40.0000, 18.3333, -72.8542, -70.3546, 79.0631, -0.7250, -0.0793, -0.6665, 0.1548, 0.0064, 0.0927, -0.0137, 1003.5400, 0.0000, 0.0000, 0.0000
2, 0.0798, 8, -0.9550, 0.4002, -0.1175, 23.1185, -8.0795, -13.3803, -37.1642, 42.2388, 18.3333, -72.7222, -70.4908, 79.1817, -0.7249, -0.0770, -0.6667, 0.1555, -0.0125, 0.0813, -0.0183, 1003.5400, 0.0000, 0.0000, 0.0000
2, 0.0898, 9, -0.9489, 0.3905, -0.1353, 24.2830, -7.7286, -12.0661, -38.2090, 41.3433, 18.5000, -72.5838, -70.6106, 79.2952, -0.7247, -0.0747, -0.6669, 0.1563, -0.0057, 0.0737, -0.0359, 1003.5400, 0.0000, 0.0000, 0.0000
2, 0.0999, 10, -0.9431, 0.3964, -0.1331, 23.9566, -7.1638, -9.9027, -39.5522, 41.3433, 17.8333, -72.4517, -70.7094, 79.4215, -0.7246, -0.0725, -0.6670, 0.1573, 0.0008, 0.0814, -0.0335, 1003.5400, 0.0000, 0.0000, 0.0000
2, 0.1099, 11, -0.9371, 0.3945, -0.1449, 23.5577, -6.9568, -7.3321, -40.5970, 40.0000, 18.0000, -72.3217, -70.7802, 79.5421, -0.7245, -0.0706, -0.6671, 0.1584, 0.0072, 0.0808, -0.0449, 1003.5400, 0.0000, 0.0000, 0.0000
2, 0.1199, 12, -0.9450, 0.3944, -0.1352, 23.8729, -6.8203, -5.4309, -40.1493, 40.4478, 18.0000, -72.1973, -70.8299, 79.6684, -0.7244, -0.0688, -0.6671, 0.1596, -0.0005, 0.0818, -0.0348, 1003.5400, 0.0000, 0.0000, 0.0000
2, 0.1299, 13, -0.9708, 0.4002, -0.1337, 24.3546, -7.6092, -4.3127, -40.0000, 41.0448, 18.0000, -72.0997, -70.8667, 79.8337, -0.7242, -0.0670, -0.6672, 0.1610, -0.0261, 0.0883, -0.0330, 1003.5400, 0.0000, 0.0000, 0.0000
2, 0.1399, 14, -0.9827, 0.4002, -0.1341, 24.2701, -6.8249, -4.0880, -39.7015, 40.7463, 18.0000, -72.0099, -70.9000, 80.0111, -0.7240, -0.0652, -0.6672, 0.1625, -0.0378, 0.0890, -0.0330, 1003.5400, 0.0000, 0.0000, 0.0000
1, 0.0400, 4, 0.0471, 0.9361, 0.2985, -2.5748, -5.6569, 1.4896, 55.0746, 40.4478, -9.6667, -109.6093, 2.0881, 79.8127, 0.4325, 0.6335, 0.5161, -0.3811, 0.0107, -0.0053, -0.0369, 1005.4000, 0.0000, 0.0000, 0.0000
1, 0.0500, 5, 0.0353, 0.9359, 0.3146, -3.1447, -5.4561, 2.2608, 57.6119, 37.9104, -9.6667, -109.6209, 2.1237, 79.8377, 0.4322, 0.6335, 0.5161, -0.3814, -0.0017, -0.0054, -0.0210, 1005.4000, 0.0000, 0.0000, 0.0000
1, 0.0601, 6, 0.0353, 0.9496, 0.3167, -3.0158, -4.6765, 2.4795, 57.4627, 39.1045, -9.8333, -109.6350, 2.1637, 79.8625, 0.4318, 0.6336, 0.5162, -0.3816, -0.0024, 0.0084, -0.0191, 1005.4100, 0.0000, 0.0000, 0.0000
1, 0.0701, 7, 0.0294, 0.9613, 0.3147, -3.2467, -2.4113, 2.9888, 53.4328, 39.8507, -9.6667, -109.6504, 2.1987, 79.8724, 0.4316, 0.6337, 0.5161, -0.3818, -0.0089, 0.0202, -0.0213, 1005.4100, 0.0000, 0.0000, 0.0000
2, 0.1499, 15, -0.9806, 0.3845, -0.1362, 24.1962, -6.1223, -0.4448, -37.3134, 39.5522, 17.8333, -71.9417, -70.9107, 80.2100, -0.7237, -0.0635, -0.6673, 0.1641, -0.0356, 0.0736, -0.0348, 1003.5400, 0.0000, 0.0000, 0.0000
2, 0.1599, 16, -0.9748, 0.4002, -0.1378, 22.7315, -4.0566, 1.4970, -39.1045, 39.4030, 17.6667, -71.8331, -70.8907, 80.3518, -0.7236, -0.0621, -0.6672, 0.1657, -0.0299, 0.0892, -0.0357, 1003.5400, 0.0000, 0.0000, 0.0000
1, 0.0801, 8, 0.0235, 0.9807, 0.3230, -2.6940, -0.1997, 2.3780, 54.4776, 39.5522, -9.3333, -109.6484, 2.2101, 79.8538, 0.4316, 0.6338, 0.5160, -0.3818, -0.0150, 0.0396, -0.0130, 1005.4100, 0.0000, 0.0000, 0.0000
1, 0.0901, 9, 0.0196, 0.9866, 0.3189, -3.2824, -0.8285, 1.0303, 56.4179, 37.3134, -9.5000, -109.6404, 2.1996, 79.8312, 0.4317, 0.6339, 0.5159, -0.3817, -0.0188, 0.0455, -0.0169, 1005.4100, 0.0000, 0.0000, 0.0000
2, 0.1699, 17, -0.9529, 0.3865, -0.1375, 22.0568, -2.2037, 2.5598, -41.0448, 40.0000, 17.6667, -71.6951, -70.8463, 80.4543, -0.7235, -0.0609, -0.6669, 0.1674, -0.0082, 0.0750, -0.0344, 1003.5400, 0.0000, 0.0000, 0.0000
2, 0.1799, 18, -0.9469, 0.3886, -0.1432, 21.4554, -1.8520, 4.5669, -39.5522, 40.7463, 17.6667, -71.5556, -70.7762, 80.5488, -0.7235, -0.0599, -0.6666, 0.1692, -0.0027, 0.0762, -0.0391, 1003.5400, 0.0000, 0.0000, 0.0000
1, 0.0999, 10, 0.0019, 0.9844, 0.3369, -3.6134, -0.1118, 0.1885, 56.1194, 38.3582, -9.1667, -109.6378, 2.1585, 79.8240, 0.4320, 0.6338, 0.5160, -0.3814, -0.0358, 0.0433, 0.0011, 1005.4100, 0.0000, 0.0000, 0.0000
1, 0.1099, 11, -0.0079, 0.9845, 0.3287, -3.6546, 0.3290, -1.2162, 54.9254, 40.2985, -9.6667, -109.6301, 2.0936, 79.8131, 0.4324, 0.6336, 0.5162, -0.3811, -0.0444, 0.0432, -0.0070, 1005.4100, 0.0000, 0.0000, 0.0000
2, 0.1899, 19, -0.9489, 0.3905, -0.1413, 21.2911, -2.7854, 6.6315, -37.9104, 40.4478, 17.5000, -71.4309, -70.6934, 80.6576, -0.7234, -0.0590, -0.6662, 0.1711, -0.0052, 0.0771, -0.0360, 1003.5400, 0.0000, 0.0000, 0.0000
2, 0.2000, 20, -0.9588, 0.3865, -0.1336, 22.3734, -1.6498, 8.0308, -40.0000, 40.2985, 17.1667, -71.3145, -70.5966, 80.7761, -0.7234, -0.0582, -0.6659, 0.1731, -0.0156, 0.0718, -0.0272, 1003.5400, 0.0000, 0.0000, 0.0000
2, 0.2100, 21, -0.9529, 0.3885, -0.1374, 23.0876, -0.6595, 10.5278, -40.7463, 42.3881, 17.1667, -71.1921, -70.4821, 80.9016, -0.7233, -0.0573, -0.6655, 0.1753, -0.0103, 0.0722, -0.0297, 1003.5400, 0.0000, 0.0000, 0.0000
2, 0.2200, 22, -0.9547, 0.3689, -0.1417, 23.7993, -0.0272, 13.4349, -38.8060, 40.8955, 16.6667, -71.0773, -70.3468, 81.0317, -0.7232, -0.0567, -0.6650, 0.1776, -0.0129, 0.0508, -0.0327, 1003.5400, 0.0000, 0.0000, 0.0000
2, 0.2300, 23, -0.9526, 0.3591, -0.1379, 23.3114, 1.1063, 16.3729, -37.3134, 39.8507, 16.6667, -70.9442, -70.1799, 81.1413, -0.7232, -0.0562, -0.6644, 0.1800, -0.0118, 0.0386, -0.0272, 1003.5700, 0.0000, 0.0000, 0.0000
2, 0.2400, 24, -0.9506, 0.3532, -0.1339, 18.7732, 1.9634, 18.5043, -37.6119, 40.8955, 16.6667, -70.8511, -69.9981, 81.2513, -0.7231, -0.0561, -0.6639, 0.1823, -0.0109, 0.0301, -0.0217, 1003.5700, 0.0000, 0.0000, 0.0000
2, 0.2500, 25, -0.9386, 0.3454, -0.1377, 14.1135, 2.5378, 19.7863, -37.0149, 40.1493, 16.8333, -70.7852, -69.7977, 81.3485, -0.7231, -0.0563, -0.6633, 0.1845, -0.0001, 0.0193, -0.0241, 1003.5700, 0.0000, 0.0000, 0.0000
1, 0.1199, 12, -0.0079, 0.9787, 0.3266, -2.9372, -1.5037, -1.9995, 53.7313, 40.1493, -9.3333, -109.6326, 2.0186, 79.8285, 0.4326, 0.6333, 0.5166, -0.3807, -0.0431, 0.0374, -0.0092, 1005.4100, 0.0000, 0.0000, 0.0000
1, 0.1299, 13, -0.0098, 0.9708, 0.3265, -2.3832, -2.6381, -1.7929, 57.4627, 38.2090, -10.0000, -109.6357, 1.9469, 79.8594, 0.4329, 0.6329, 0.5170, -0.3804, -0.0438, 0.0295, -0.0093, 1005.4100, 0.0000, 0.0000, 0.0000
1, 0.1399, 14, -0.0137, 0.9669, 0.3264, -3.2492, -4.5513, -2.7310, 55.8209, 39.5522, -9.1667, -109.6434, 1.8820, 79.9078, 0.4330, 0.6326, 0.5176, -0.3802, -0.0466, 0.0256, -0.0096, 1005.4100, 0.0000, 0.0000, 0.0000
1, 0.1499, 15, -0.0196, 0.9533, 0.3221, -3.6519, -7.2544, -2.5453, 57.4627, 38.5075, -9.5000, -109.6641, 1.8425, 79.9780, 0.4328, 0.6322, 0.5182, -0.3802, -0.0518, 0.0121, -0.0142, 1005.4100, 0.0000, 0.0000, 0.0000
1, 0.1599, 16, -0.0079, 0.9532, 0.3385, -4.5992, -9.3879, -2.8523, 57.1642, 40.1493, -9.1667, -109.6953, 1.8244, 80.0715, 0.4324, 0.6318, 0.5189, -0.3803, -0.0398, 0.0121, 0.0016, 1005.4100, 0.0000, 0.0000, 0.0000
1, 0.1699, 17, 0.0019, 0.9415, 0.3324, -3.8899, -12.4353, -2.9416, 54.6269, 38.2090, -9.1667, -109.7345, 1.8213, 80.1968, 0.4318, 0.6314, 0.5197, -0.3806, -0.0299, 0.0007, -0.0051, 1005.4100, 0.0000, 0.0000, 0.0000
1, 0.1799, 18, 0.0195, 0.9317, 0.3406, -3.9524, -14.0702, -2.8147, 56.2687, 38.6567, -9.3333, -109.7696, 1.8300, 80.3359, 0.4311, 0.6309, 0.5205, -0.3810, -0.0124, -0.0088, 0.0026, 1005.4100, 0.0000, 0.0000, 0.0000
2, 0.2600, 26, -0.9505, 0.3513, -0.1379, 10.2184, 2.6808, 21.7882, -39.1045, 41.0448, 16.5000, -70.7614, -69.5829, 81.4439, -0.7230, -0.0569, -0.6628, 0.1864, -0.0134, 0.0219, -0.0230, 1003.5700, 0.0000, 0.0000, 0.0000
2, 0.2698, 27, -0.9466, 0.3512, -0.1339, 7.5839, 3.6080, 23.3041, -35.3731, 40.1493, 16.3333, -70.7727, -69.3502, 81.5413, -0.7229, -0.0578, -0.6623, 0.1883, -0.0108, 0.0183, -0.0177, 1003.5700, 0.0000, 0.0000, 0.0000
1, 0.1899, 19, 0.0313, 0.9376, 0.3429, -3.3504, -13.9331, -1.9637, 54.0299, 39.1045, -9.3333, -109.8077, 1.8522, 80.4814, 0.4303, 0.6305, 0.5214, -0.3815, -0.0010, -0.0027, 0.0042, 1005.4100, 0.0000, 0.0000, 0.0000
1, 0.2000, 20, 0.0273, 0.9472, 0.3632, -2.1186, -12.2205, -1.9393, 54.6269, 39.1045, -9.3333, -109.8386, 1.8781, 80.6183, 0.4295, 0.6300, 0.5221, -0.3820, -0.0055, 0.0070, 0.0240, 1005.4100, 0.0000, 0.0000, 0.0000
1, 0.2100, 21, 0.0391, 0.9472, 0.3593, -0.8821, -12.0722, -1.7165, 53.5821, 40.4478, -9.5000, -109.8582, 1.9051, 80.7434, 0.4289, 0.6296, 0.5228, -0.3825, 0.0058, 0.0072, 0.0198, 1005.4100, 0.0000, 0.0000, 0.0000
2, 0.2798, 28, -0.9426, 0.3532, -0.1397, 4.2582, 4.4666, 24.3005, -37.7612, 41.6418, 16.3333, -70.8091, -69.1057, 81.6364, -0.7228, -0.0589, -0.6617, 0.1901, -0.0084, 0.0164, -0.0224, 1003.5700, 0.0000, 0.0000, 0.0000
1, 0.2200, 22, 0.0332, 0.9550, 0.3654, 0.3326, -10.7956, -0.7806, 53.7313, 39.4030, -10.1667, -109.8662, 1.9300, 80.8600, 0.4283, 0.6292, 0.5234, -0.3830, -0.0005, 0.0150, 0.0257, 1005.4100, 0.0000, 0.0000, 0.0000
1, 0.2300, 23, 0.0234, 0.9609, 0.3572, 1.7133, -11.7112, -0.5652, 56.1194, 38.6567, -9.6667, -109.8591, 1.9485, 80.9810, 0.4279, 0.6287, 0.5239, -0.3836, -0.0106, 0.0209, 0.0177, 1005.4100, 0.0000, 0.0000, 0.0000
2, 0.2898, 29, -0.9448, 0.3688, -0.1236, 4.2262, 4.8187, 25.8431, -37.4627, 42.2388, 16.1667, -70.8622, -68.8465, 81.7438, -0.7227, -0.0602, -0.6612, 0.1920, -0.0122, 0.0279, -0.0053, 1003.5700, 0.0000, 0.0000, 0.0000
1, 0.2400, 24, 0.0077, 0.9667, 0.3571, 1.9809, -11.5711, -0.2098, 53.5821, 38.5075, -9.6667, -109.8364, 1.9715, 81.0959, 0.4275, 0.6282, 0.5244, -0.3843, -0.0267, 0.0266, 0.0179, 1005.4100, 0.0000, 0.0000, 0.0000
2, 0.2998, 30, -0.9389, 0.3728, -0.1254, 3.9439, 4.9619, 25.8346, -35.5224, 41.6418, 16.1667, -70.9280, -68.5808, 81.8618, -0.7225, -0.0615, -0.6607, 0.1939, -0.0080, 0.0277, -0.0061, 1003.5700, 0.0000, 0.0000, 0.0000
1, 0.2500, 25, 0.0155, 0.9648, 0.3571, 0.8883, -11.4307, -0.7811, 54.4776, 40.2985, -10.0000, -109.8230, 1.9953, 81.2163, 0.4271, 0.6276, 0.5249, -0.3849, -0.0193, 0.0246, 0.0182, 1005.4100, 0.0000, 0.0000, 0.0000
2, 0.3098, 31, -0.9349, 0.3630, -0.1235, 4.0703, 5.2454, 26.4051, -39.2537, 42.2388, 16.1667, -70.9955, -68.3120, 81.9807, -0.7224, -0.0629, -0.6602, 0.1958, -0.0056, 0.0136, -0.0031, 1003.5700, 0.0000, 0.0000, 0.0000
2, 0.3198, 32, -0.9468, 0.3669, -0.1177, 3.1675, 4.8193, 26.2170, -35.5224, 41.3433, 16.3333, -71.0596, -68.0447, 82.0944, -0.7222, -0.0642, -0.6597, 0.1977, -0.0193, 0.0132, 0.0036, 1003.5700, 0.0000, 0.0000, 0.0000
2, 0.3298, 33, -0.9210, 0.3551, -0.1053, 3.4422, 5.3184, 26.1709, -39.1045, 42.8358, 15.6667, -71.1234, -67.7811, 82.2091, -0.7220, -0.0656, -0.6592, 0.1996, 0.0048, -0.0027, 0.0170, 1003.5700, 0.0000, 0.0000, 0.0000
2, 0.3398, 34, -0.9270, 0.3610, -0.1054, 3.1011, 4.4625, 26.2754, -36.2687, 42.0896, 16.1667, -71.2043, -67.5193, 82.3395, -0.7218, -0.0669, -0.6587, 0.2015, -0.0030, -0.0010, 0.0178, 1003.5700, 0.0000, 0.0000, 0.0000
1, 0.2600, 26, 0.0116, 0.9628, 0.3550, -0.6660, -11.9581, 1.0319, 57.1642, 39.1045, -10.0000, -109.8278, 2.0178, 81.3414, 0.4265, 0.6271, 0.5255, -0.3855, -0.0236, 0.0227, 0.0161, 1005.4100, 0.0000, 0.0000, 0.0000
1, 0.2700, 27, 0.0253, 0.9530, 0.3652, 1.0614, -14.8300, -1.5114, 57.0149, 39.1045, -9.6667, -109.8275, 2.0458, 81.4875, 0.4259, 0.6266, 0.5262, -0.3862, -0.0104, 0.0129, 0.0263, 1005.4100, 0.0000, 0.0000, 0.0000
1, 0.2800, 28, 0.0371, 0.9648, 0.3635, 1.9454, -15.4711, -0.7347, 57.4627, 38.6567, -9.8333, -109.8145, 2.0852, 81.6476, 0.4252, 0.6259, 0.5269, -0.3870, 0.0007, 0.0246, 0.0247, 1005.4100, 0.0000, 0.0000, 0.0000
1, 0.2900, 29, 0.0527, 0.9491, 0.3696, 1.7376, -14.0488, -1.0769, 53.8806, 38.6567, -9.8333, -109.8029, 2.1283, 81.7995, 0.4246, 0.6253, 0.5275, -0.3879, 0.0156, 0.0089, 0.0311, 1005.4100, 0.0000, 0.0000, 0.0000
1, 0.3000, 30, 0.0410, 0.9589, 0.3635, 1.5104, -10.8561, -0.9823, 54.6269, 38.9552, -9.8333, -109.7917, 2.1609, 81.9220, 0.4241, 0.6248, 0.5280, -0.3886, 0.0033, 0.0187, 0.0251, 1005.4100, 0.0000, 0.0000, 0.0000
2, 0.3499, 35, -0.9269, 0.3590, -0.1094, 3.8189, 4.0351, 25.6674, -40.4478, 43.7313, 15.8333, -71.2862, -67.2680, 82.4720, -0.7216, -0.0682, -0.6583, 0.2033, -0.0046, -0.0070, 0.0146, 1003.5700, 0.0000, 0.0000, 0.0000
2, 0.3599, 36, -0.9290, 0.3629, -0.0975, 3.0103, 3.4699, 24.2236, -35.0746, 42.9851, 15.8333, -71.3743, -67.0279, 82.6147, -0.7213, -0.0693, -0.6579, 0.2051, -0.0083, -0.0070, 0.0272, 1003.5700, 0.0000, 0.0000, 0.0000
2, 0.3699, 37, -0.9310, 0.3648, -0.0995, 3.8558, 3.3262, 24.1164, -37.7612, 44.6269, 15.5000, -71.4564, -66.7967, 82.7557, -0.7210, -0.0704, -0.6576, 0.2068, -0.0119, -0.0087, 0.0258, 1003.5700, 0.0000, 0.0000, 0.0000
1, 0.3101, 31, 0.0391, 0.9512, 0.3512, 1.5620, -9.4403, -0.5479, 57.9104, 37.9104, -10.1667, -109.7802, 2.1840, 82.0235, 0.4237, 0.6244, 0.5284, -0.3891, 0.0010, 0.0109, 0.0131, 1005.4100, 0.0000, 0.0000, 0.0000
1, 0.3201, 32, 0.0293, 0.9550, 0.3572, 3.2555, -9.5153, 0.9442, 56.7164, 38.9552, -10.3333, -109.7625, 2.2091, 82.1206, 0.4233, 0.6239, 0.5288, -0.3897, -0.0093, 0.0146, 0.0193, 1005.4100, 0.0000, 0.0000, 0.0000
2, 0.3799, 38, -0.9389, 0.3648, -0.0977, 4.7795, 2.6831, 23.9308, -35.6716, 43.7313, 15.1667, -71.5579, -66.5740, 82.9243, -0.7207, -0.0714, -0.6573, 0.2086, -0.0214, -0.0123, 0.0281, 1003.5700, 0.0000, 0.0000, 0.0000
2, 0.3899, 39, -0.9389, 0.3668, -0.1076, 6.5229, 0.4737, 22.2067, -34.1791, 43.5821, 15.5000, -71.6564, -66.3641, 83.1029, -0.7203, -0.0723, -0.6570, 0.2103, -0.0228, -0.0137, 0.0186, 1003.5700, 0.0000, 0.0000, 0.0000
2, 0.3999, 40, -0.9329, 0.3609, -0.0976, 7.7768, 0.3987, 22.7467, -37.9104, 43.5821, 16.0000, -71.7505, -66.1599, 83.2968, -0.7199, -0.0730, -0.6568, 0.2122, -0.0183, -0.0230, 0.0290, 1003.5700, 0.0000, 0.0000, 0.0000
2, 0.4099, 41, -0.9429, 0.3687, -0.0997, 8.9302, -0.6705, 21.7928, -34.6269, 42.8358, 15.3333, -71.8505, -65.9647, 83.5091, -0.7194, -0.0736, -0.6566, 0.2141, -0.0296, -0.0183, 0.0271, 1003.5700, 0.0000, 0.0000, 0.0000
1, 0.3301, 33, 0.0293, 0.9572, 0.3370, 3.3088, -7.8850, 1.2395, 57.4627, 38.3582, -10.0000, -109.7305, 2.2449, 82.1966, 0.4231, 0.6236, 0.5290, -0.3903, -0.0098, 0.0166, -0.0004, 1005.4100, 0.0000, 0.0000, 0.0000
1, 0.3401, 34, 0.0372, 0.9553, 0.3290, 4.0570, -8.3836, 1.8754, 55.3731, 39.8507, -10.5000, -109.6877, 2.2791, 82.2657, 0.4229, 0.6232, 0.5291, -0.3909, -0.0025, 0.0145, -0.0077, 1005.4100, 0.0000, 0.0000, 0.0000
1, 0.3499, 35, 0.0470, 0.9572, 0.3392, 3.7979, -8.6618, 1.1669, 57.0149, 38.5075, -10.0000, -109.6444, 2.3227, 82.3398, 0.4227, 0.6228, 0.5292, -0.3916, 0.0065, 0.0162, 0.0033, 1005.4100, 0.0000, 0.0000, 0.0000
1, 0.3599, 36, 0.0372, 0.9475, 0.3289, 3.7169, -6.1049, 1.0463, 56.8657, 37.6119, -10.5000, -109.5958, 2.3552, 82.3976, 0.4226, 0.6225, 0.5292, -0.3923, -0.0039, 0.0062, -0.0062, 1005.4100, 0.0000, 0.0000, 0.0000
1, 0.3799, 37, 0.0372, 0.9455, 0.3390, 3.2008, -2.7783, 1.7027, 55.8209, 39.1045, -10.5000, -109.5128, 2.3977, 82.4609, 0.4226, 0.6220, 0.5291, -0.3931, -0.0047, 0.0037, 0.0053, 1005.4100, 0.0000, 0.0000, 0.0000
2, 0.4199, 42, -0.9231, 0.3608, -0.0795, 12.0412, -1.7440, 21.2009, -36.2687, 45.2239, 15.0000, -71.9469, -65.7829, 83.7364, -0.7190, -0.0740, -0.6565, 0.2160, -0.0111, -0.0292, 0.0476, 1003.5700, 0.0000, 0.0000, 0.0000
2, 0.4299, 43, -0.9310, 0.3688, -0.0975, 12.8966, -2.6012, 21.0770, -34.3284, 42.9851, 15.1667, -72.0361, -65.6042, 83.9729, -0.7184, -0.0743, -0.6563, 0.2180, -0.0203, -0.0241, 0.0299, 1003.5700, 0.0000, 0.0000, 0.0000
1, 0.3899, 38, 0.0156, 0.9572, 0.3307, 3.4729, -1.8526, 1.6422, 54.1791, 39.8507, -10.6667, -109.4657, 2.3831, 82.4664, 0.4229, 0.6218, 0.5290, -0.3933, -0.0259, 0.0152, -0.0022, 1005.4100, 0.0000, 0.0000, 0.0000
1, 0.3999, 39, 0.0078, 0.9436, 0.3224, 3.2644, -1.8548, 1.7108, 55.3731, 39.4030, -11.0000, -109.4228, 2.3587, 82.4810, 0.4232, 0.6215, 0.5290, -0.3934, -0.0333, 0.0013, -0.0099, 1005.4100, 0.0000, 0.0000, 0.0000
1, 0.4099, 40, 0.0019, 0.9551, 0.3386, 2.7236, -3.4908, 1.6225, 54.3284, 40.0000, -10.3333, -109.3854, 2.3433, 82.5126, 0.4234, 0.6212, 0.5291, -0.3936, -0.0390, 0.0126, 0.0070, 1005.4100, 0.0000, 0.0000, 0.0000
1, 0.4199, 41, 0.0059, 0.9691, 0.3125, 2.1786, -4.4169, 1.5399, 58.2090, 38.8060, -10.6667, -109.3421, 2.3394, 82.5367, 0.4236, 0.6209, 0.5291, -0.3939, -0.0349, 0.0263, -0.0184, 1005.4100, 0.0000, 0.0000, 0.0000
1, 0.4299, 42, 0.0079, 0.9807, 0.3187, 0.7732, -3.5505, -0.7177, 54.6269, 39.8507, -10.6667, -109.2971, 2.3181, 82.5539, 0.4239, 0.6206, 0.5292, -0.3940, -0.0326, 0.0377, -0.0115, 1005.4100, 0.0000, 0.0000, 0.0000
1, 0.4399, 43, 0.0078, 0.9807, 0.3248, -1.1040, -2.1465, -0.4405, 56.7164, 38.2090, -10.6667, -109.2532, 2.2626, 82.5513, 0.4244, 0.6202, 0.5292, -0.3939, -0.0316, 0.0373, -0.0047, 1005.4100, 0.0000, 0.0000, 0.0000
2, 0.4399, 44, -0.9231, 0.3609, -0.0934, 15.7245, -3.7461, 20.6809, -34.9254, 44.1791, 15.3333, -72.1179, -65.4354, 84.2319, -0.7179, -0.0743, -0.6562, 0.2201, -0.0136, -0.0347, 0.0343, 1003.5700, 0.0000, 0.0000, 0.0000
2, 0.4500, 45, -0.9112, 0.3669, -0.0990, 17.5908, -5.6012, 19.6686, -34.9254, 44.3284, 14.8333, -72.1974, -65.2747, 84.5084, -0.7173, -0.0742, -0.6562, 0.2223, -0.0029, -0.0314, 0.0289, 1003.5700, 0.0000, 0.0000, 0.0000
1, 0.4500, 44, 0.0157, 0.9748, 0.3248, -3.1000, -3.2262, -0.3958, 59.1045, 37.7612, -10.8333, -109.2564, 2.2348, 82.5676, 0.4244, 0.6201, 0.5294, -0.3938, -0.0233, 0.0315, -0.0047, 1005.4100, 0.0000, 0.0000, 0.0000
1, 0.4600, 45, 0.0196, 0.9768, 0.3290, -2.8440, -5.9058, -1.9643, 57.0149, 39.4030, -10.8333, -109.2746, 2.2152, 82.6144, 0.4243, 0.6199, 0.5298, -0.3938, -0.0191, 0.0335, -0.0009, 1005.4100, 0.0000, 0.0000, 0.0000
2, 0.4600, 46, -0.9092, 0.3570, -0.0891, 19.4426, -7.0296, 19.1544, -33.7313, 43.8806, 15.0000, -72.2870, -65.1244, 84.8133, -0.7166, -0.0739, -0.6562, 0.2246, -0.0019, -0.0437, 0.0389, 1003.5700, 0.0000, 0.0000, 0.0000
2, 0.4700, 47, -0.9170, 0.3512, -0.1013, 21.7737, -8.1747, 19.0862, -32.6866, 43.5821, 14.8333, -72.3592, -64.9807, 85.1217, -0.7159, -0.0735, -0.6561, 0.2269, -0.0108, -0.0519, 0.0268, 1003.5700, 0.0000, 0.0000, 0.0000
2, 0.4800, 48, -0.9150, 0.3531, -0.0973, 23.2737, -8.9591, 18.1538, -34.9254, 43.7313, 14.8333, -72.4449, -64.8464, 85.4572, -0.7152, -0.0729, -0.6562, 0.2293, -0.0099, -0.0521, 0.0309, 1003.5700, 0.0000, 0.0000, 0.0000
2, 0.4900, 49, -0.9230, 0.3531, -0.0975, 24.6907, -10.2462, 18.3226, -34.3284, 45.6716, 14.3333, -72.5265, -64.7184, 85.8064, -0.7144, -0.0722, -0.6563, 0.2318, -0.0187, -0.0543, 0.0308, 1003.5700, 0.0000, 0.0000, 0.0000
1, 0.4700, 46, 0.0215, 0.9689, 0.3289, -1.5127, -8.0938, -2.3229, 57.7612, 38.2090, -10.6667, -109.2847, 2.2073, 82.6807, 0.4240, 0.6196, 0.5302, -0.3940, -0.0170, 0.0258, -0.0011, 1005.4100, 0.0000, 0.0000, 0.0000
1, 0.4800, 47, 0.0294, 0.9728, 0.3371, -2.6042, -9.1634, -2.6224, 58.9552, 38.5075, -10.1667, -109.3014, 2.2015, 82.7681, 0.4237, 0.6192, 0.5308, -0.3942, -0.0091, 0.0297, 0.0068, 1005.4100, 0.0000, 0.0000, 0.0000
1, 0.4900, 48, 0.0195, 0.9650, 0.3369, -3.4118, -8.2332, -3.8185, 55.2239, 40.1493, -11.0000, -109.3294, 2.1896, 82.8611, 0.4232, 0.6188, 0.5314, -0.3943, -0.0187, 0.0220, 0.0062, 1005.4100, 0.0000, 0.0000, 0.0000
2, 0.5000, 50, -0.9328, 0.3433, -0.1038, 26.3981, -11.1030, 17.6067, -34.0299, 44.6269, 14.6667, -72.5911, -64.6001, 86.1476, -0.7137, -0.0714, -0.6563, 0.2342, -0.0294, -0.0660, 0.0245, 1003.5700, 0.0000, 0.0000, 0.0000
2, 0.5100, 51, -0.9387, 0.3433, -0.1119, 26.8939, -11.0315, 17.2804, -33.4328, 44.9254, 14.5000, -72.6522, -64.4861, 86.4950, -0.7129, -0.0705, -0.6564, 0.2367, -0.0362, -0.0678, 0.0165, 1003.5700, 0.0000, 0.0000, 0.0000
2, 0.5198, 52, -0.9387, 0.3531, -0.1177, 27.2083, -11.5268, 15.7463, -32.9851, 44.1791, 14.5000, -72.7143, -64.3839, 86.8455, -0.7121, -0.0695, -0.6565, 0.2391, -0.0370, -0.0597, 0.0107, 1003.5700, 0.0000, 0.0000, 0.0000
2, 0.5298, 53, -0.9366, 0.3414, -0.1198, 27.7634, -11.0282, 15.7120, -36.5672, 46.2687, 14.1667, -72.7590, -64.2876, 87.1822, -0.7113, -0.0684, -0.6565, 0.2415, -0.0357, -0.0730, 0.0087, 1003.5700, 0.0000, 0.0000, 0.0000
2, 0.5398, 54, -0.9406, 0.3394, -0.1180, 27.7009, -10.5977, 14.9519, -34.0299, 44.7761, 14.0000, -72.7820, -64.1984, 87.4962, -0.7106, -0.0673, -0.6565, 0.2438, -0.0403, -0.0763, 0.0108, 1003.5700, 0.0000, 0.0000, 0.0000
2, 0.5498, 55, -0.9346, 0.3395, -0.1278, 26.8090, -9.3057, 12.8512, -36.4179, 45.8209, 14.0000, -72.7796, -64.1203, 87.7676, -0.7100, -0.0662, -0.6565, 0.2459, -0.0349, -0.0774, 0.0015, 1003.5700, 0.0000, 0.0000, 0.0000
2, 0.5598, 56, -0.9366, 0.3355, -0.1180, 26.3111, -8.5910, 12.7076, -31.6418, 44.6269, 13.8333, -72.7554, -64.0540, 88.0122, -0.7095, -0.0650, -0.6564, 0.2480, -0.0374, -0.0824, 0.0118, 1003.5700, 0.0000, 0.0000, 0.0000
2, 0.5698, 57, -0.9405, 0.3296, -0.1221, 24.7352, -7.7239, 9.9395, -32.9851, 46.5672, 13.5000, -72.7147, -64.0060, 88.2133, -0.7090, -0.0639, -0.6564, 0.2497, -0.0416, -0.0889, 0.0081, 1003.5700, 0.0000, 0.0000, 0.0000
2, 0.5798, 58, -0.9206, 0.3219, -0.1356, 22.4083, -6.4351, 9.6624, -34.1791, 46.2687, 13.5000, -72.6631, -63.9669, 88.3753, -0.7087, -0.0629, -0.6562, 0.2513, -0.0220, -0.0971, -0.0048, 1003.5700, 0.0000, 0.0000, 0.0000
2, 0.5898, 59, -0.9147, 0.3219, -0.1235, 19.5362, -4.5706, 8.0498, -34.1791, 46.8657, 13.5000, -72.5954, -63.9407, 88.4794, -0.7085, -0.0621, -0.6561, 0.2524, -0.0163, -0.0973, 0.0079, 1003.5700, 0.0000, 0.0000, 0.0000
2, 0.5999, 60, -0.9106, 0.3160, -0.1255, 17.1008, -3.3476, 6.0215, -33.8806, 47.3134, 12.8333, -72.5065, -63.9343, 88.5242, -0.7084, -0.0613, -0.6559, 0.2533, -0.0123, -0.1031, 0.0066, 1003.5700, 0.0000, 0.0000, 0.0000
2, 0.6099, 61, -0.9066, 0.3200, -0.1412, 13.3140, -2.4833, 5.3233, -33.2836, 45.6716, 13.1667, -72.3916, -63.9438, 88.4814, -0.7086, -0.0608, -0.6556, 0.2536, -0.0083, -0.0987, -0.0084, 1003.5700, 0.0000, 0.0000, 0.0000
2, 0.6199, 62, -0.9185, 0.3180, -0.1336, 11.6271, -0.3359, 3.9073, -33.5821, 46.4179, 13.0000, -72.2747, -63.9832, 88.3866, -0.7089, -0.0604, -0.6554, 0.2535, -0.0199, -0.0998, -0.0001, 1003.5700, 0.0000, 0.0000, 0.0000
2, 0.6299, 63, -0.9304, 0.3101, -0.1281, 8.7028, 0.6737, 1.9230, -33.8806, 46.1194, 12.8333, -72.1103, -64.0671, 88.1909, -0.7094, -0.0599, -0.6552, 0.2527, -0.0311, -0.1061, 0.0062, 1003.5700, 0.0000, 0.0000, 0.0000
1, 0.5000, 49, 0.0255, 0.9651, 0.3249, -4.1713, -7.0994, -4.0972, 56.2687, 37.7612, -10.6667, -109.3648, 2.1762, 82.9451, 0.4228, 0.6185, 0.5321, -0.3944, -0.0125, 0.0223, -0.0065, 1005.4100, 0.0000, 0.0000, 0.0000
1, 0.5100, 50, 0.0137, 0.9610, 0.3388, -3.2845, -7.4543, -3.5294, 56.5672, 37.4627, -10.6667, -109.3982, 2.1535, 83.0305, 0.4225, 0.6182, 0.5327, -0.3944, -0.0239, 0.0185, 0.0070, 1005.4100, 0.0000, 0.0000, 0.0000
1, 0.5200, 51, 0.0038, 0.9571, 0.3407, -4.2343, -9.1619, -3.8330, 55.2239, 40.2985, -10.8333, -109.4358, 2.1307, 83.1355, 0.4220, 0.6178, 0.5335, -0.3945, -0.0333, 0.0147, 0.0082, 1005.4100, 0.0000, 0.0000, 0.0000
1, 0.5300, 52, 0.0097, 0.9590, 0.3428, -4.3548, -10.8629, -4.1999, 55.9701, 38.9552, -10.6667, -109.4760, 2.1115, 83.2567, 0.4215, 0.6173, 0.5344, -0.3947, -0.0271, 0.0169, 0.0096, 1005.4100, 0.0000, 0.0000, 0.0000
2, 0.6399, 64, -0.9384, 0.3159, -0.1262, 1.4850, 2.1882, 0.3969, -31.1940, 45.5224, 13.1667, -71.9011, -64.2964, 87.7427, -0.7106, -0.0598, -0.6550, 0.2498, -0.0373, -0.0963, 0.0085, 1003.5700, 0.0000, 0.0000, 0.0000
2, 0.6499, 65, -0.9304, 0.3159, -0.1240, -2.1714, 4.1233, -0.5493, -36.1194, 46.1194, 13.0000, -71.6848, -64.5216, 87.2655, -0.7118, -0.0598, -0.6549, 0.2468, -0.0277, -0.0925, 0.0111, 1003.5700, 0.0000, 0.0000, 0.0000
2, 0.6599, 66, -0.9145, 0.3081, -0.1158, -6.0604, 7.0562, -0.9928, -31.9403, 44.3284, 13.0000, -71.5564, -64.6182, 86.9762, -0.7125, -0.0601, -0.6547, 0.2452, -0.0111, -0.0985, 0.0198, 1003.5700, 0.0000, 0.0000, 0.0000
2, 0.6699, 67, -0.9066, 0.3121, -0.1215, -10.6845, 8.6377, -2.4771, -33.1343, 45.5224, 12.8333, -71.4516, -64.6753, 86.7039, -0.7132, -0.0606, -0.6544, 0.2438, -0.0027, -0.0935, 0.0146, 1003.5700, 0.0000, 0.0000, 0.0000
2, 0.6799, 68, -0.9128, 0.3277, -0.1115, -14.8255, 9.5021, -2.9810, -32.9851, 45.3731, 13.1667, -71.3710, -64.7159, 86.4381, -0.7138, -0.0614, -0.6542, 0.2423, -0.0086, -0.0770, 0.0249, 1003.5700, 0.0000, 0.0000, 0.0000
1, 0.5400, 53, 0.0156, 0.9592, 0.3308, -4.2239, -12.5033, -3.4378, 55.9701, 40.4478, -10.8333, -109.5126, 2.1042, 83.3794, 0.4209, 0.6168, 0.5352, -0.3949, -0.0211, 0.0172, -0.0030, 1005.4100, 0.0000, 0.0000, 0.0000
1, 0.5500, 54, 0.0254, 0.9591, 0.3430, -3.3060, -14.2667, -3.9372, 55.9701, 39.8507, -11.0000, -109.5450, 2.1089, 83.5250, 0.4202, 0.6163, 0.5361, -0.3953, -0.0114, 0.0173, 0.0087, 1005.4100, 0.0000, 0.0000, 0.0000
1, 0.5601, 55, 0.0293, 0.9551, 0.3451, -2.9021, -14.6249, -3.3736, 57.4627, 38.8060, -10.6667, -109.5722, 2.1194, 83.6775, 0.4195, 0.6157, 0.5369, -0.3958, -0.0077, 0.0136, 0.0103, 1005.4100, 0.0000, 0.0000, 0.0000
2, 0.6899, 69, -0.9126, 0.3160, -0.1196, -18.1276, 10.7937, -3.6484, -33.7313, 46.7164, 12.8333, -71.3044, -64.7536, 86.1563, -0.7144, -0.0624, -0.6540, 0.2407, -0.0081, -0.0881, 0.0171, 1003.5700, 0.0000, 0.0000, 0.0000
2, 0.7000, 70, -0.9088, 0.3238, -0.1095, -21.2199, 11.5842, -3.9001, -32.2388, 45.6716, 13.0000, -71.2448, -64.7831, 85.8544, -0.7151, -0.0635, -0.6538, 0.2390, -0.0041, -0.0797, 0.0275, 1003.5700, 0.0000, 0.0000, 0.0000
2, 0.7100, 71, -0.9028, 0.3238, -0.1173, -23.8294, 12.9447, -4.1177, -35.9701, 46.1194, 13.0000, -71.1909, -64.8087, 85.5338, -0.7158, -0.0649, -0.6536, 0.2372, 0.0021, -0.0791, 0.0200, 1003.5700, 0.0000, 0.0000, 0.0000
1, 0.5701, 56, 0.0332, 0.9492, 0.3511, -0.9473, -15.1695, -4.2767, 57.4627, 37.9104, -10.6667, -109.5886, 2.1336, 83.8442, 0.4187, 0.6150, 0.5378, -0.3964, -0.0040, 0.0078, 0.0161, 1005.4100, 0.0000, 0.0000, 0.0000
1, 0.5801, 57, 0.0254, 0.9434, 0.3429, 0.0822, -17.8709, -3.3045, 55.2239, 40.1493, -10.6667, -109.5913, 2.1519, 84.0221, 0.4180, 0.6143, 0.5387, -0.3972, -0.0122, 0.0020, 0.0078, 1005.4100, 0.0000, 0.0000, 0.0000
2, 0.7200, 72, -0.9088, 0.3277, -0.1134, -26.9065, 12.4506, -4.2601, -32.8358, 44.4776, 13.1667, -71.1654, -64.8332, 85.2160, -0.7165, -0.0664, -0.6534, 0.2352, -0.0037, -0.0748, 0.0239, 1003.5700, 0.0000, 0.0000, 0.0000
2, 0.7300, 73, -0.9247, 0.3257, -0.1039, -28.9871, 12.4580, -5.6045, -33.8806, 45.3731, 13.5000, -71.1609, -64.8659, 84.9021, -0.7171, -0.0679, -0.6533, 0.2331, -0.0193, -0.0763, 0.0333, 1003.6400, 0.0000, 0.0000, 0.0000
2, 0.7400, 74, -0.9367, 0.3314, -0.0902, -32.6375, 12.6064, -5.5464, -35.8209, 47.3134, 13.3333, -71.1913, -64.8950, 84.5976, -0.7177, -0.0697, -0.6533, 0.2308, -0.0311, -0.0702, 0.0466, 1003.6400, 0.0000, 0.0000, 0.0000
1, 0.5901, 58, 0.0176, 0.9415, 0.3367, 1.8809, -19.2089, -3.1594, 57.3134, 39.1045, -11.0000, -109.5767, 2.1760, 84.2132, 0.4173, 0.6134, 0.5396, -0.3981, -0.0204, 0.0000, 0.0018, 1005.4100, 0.0000, 0.0000, 0.0000
1, 0.5999, 59, 0.0136, 0.9356, 0.3467, 2.9184, -19.9125, -3.0860, 57.9104, 39.2537, -10.8333, -109.5491, 2.2068, 84.4157, 0.4166, 0.6124, 0.5405, -0.3991, -0.0249, -0.0061, 0.0123, 1005.4100, 0.0000, 0.0000, 0.0000
2, 0.7500, 75, -0.9287, 0.3256, -0.0941, -36.1533, 13.2542, -5.5403, -33.1343, 45.0746, 13.3333, -71.2438, -64.9268, 84.2879, -0.7183, -0.0716, -0.6533, 0.2284, -0.0229, -0.0757, 0.0422, 1003.6400, 0.0000, 0.0000, 0.0000
2, 0.7600, 76, -0.9090, 0.3295, -0.0756, -37.9790, 13.6858, -5.7470, -35.0746, 46.4179, 13.6667, -71.3250, -64.9592, 83.9823, -0.7189, -0.0737, -0.6533, 0.2258, -0.0029, -0.0715, 0.0599, 1003.6400, 0.0000, 0.0000, 0.0000
1, 0.6099, 60, 0.0038, 0.9298, 0.3364, 4.0015, -19.9865, -2.0918, 57.3134, 37.7612, -11.1667, -109.5062, 2.2448, 84.6183, 0.4159, 0.6114, 0.5413, -0.4002, -0.0353, -0.0121, 0.0027, 1005.4100, 0.0000, 0.0000, 0.0000
2, 0.7698, 77, -0.8932, 0.3373, -0.0692, -40.8946, 12.6230, -6.6639, -32.9851, 44.7761, 14.0000, -71.4356, -64.9922, 83.6882, -0.7194, -0.0758, -0.6534, 0.2232, 0.0130, -0.0634, 0.0654, 1003.6400, 0.0000, 0.0000, 0.0000
2, 0.7798, 78, -0.8794, 0.3453, -0.0786, -41.4972, 11.9138, -7.7535, -33.5821, 45.8209, 14.1667, -71.5668, -65.0374, 83.4046, -0.7198, -0.0780, -0.6536, 0.2204, 0.0272, -0.0551, 0.0548, 1003.6400, 0.0000, 0.0000, 0.0000
1, 0.6199, 61, -0.0059, 0.9377, 0.3242, 5.2284, -20.2703, -1.3094, 54.1791, 40.0000, -11.1667, -109.4496, 2.2817, 84.8140, 0.4154, 0.6104, 0.5420, -0.4014, -0.0457, -0.0045, -0.0085, 1005.4100, 0.0000, 0.0000, 0.0000
2, 0.7898, 79, -0.8894, 0.3590, -0.0767, -41.2304, 10.1352, -9.5996, -34.7761, 44.6269, 14.3333, -71.7299, -65.1012, 83.1571, -0.7202, -0.0800, -0.6539, 0.2175, 0.0176, -0.0408, 0.0553, 1003.6400, 0.0000, 0.0000, 0.0000
2, 0.7998, 80, -0.8895, 0.3688, -0.0745, -39.4206, 8.9976, -11.9233, -35.3731, 44.6269, 14.6667, -71.8873, -65.1836, 82.9167, -0.7205, -0.0819, -0.6543, 0.2146, 0.0181, -0.0302, 0.0559, 1003.6400, 0.0000, 0.0000, 0.0000
2, 0.8098, 81, -0.8995, 0.3746, -0.0668, -37.1321, 8.6438, -14.1381, -33.5821, 44.0299, 14.8333, -72.0261, -65.2887, 82.6835, -0.7209, -0.0835, -0.6546, 0.2118, 0.0089, -0.0231, 0.0622, 1003.6400, 0.0000, 0.0000, 0.0000
2, 0.8198, 82, -0.9075, 0.3844, -0.0688, -32.8155, 8.0713, -15.8533, -33.1343, 44.3284, 14.8333, -72.1325, -65.4158, 82.4558, -0.7212, -0.0847, -0.6550, 0.2090, 0.0018, -0.0116, 0.0588, 1003.6400, 0.0000, 0.0000, 0.0000
1, 0.6299, 62, 0.0020, 0.9475, 0.3203, 6.1142, -21.4802, -0.4670, 56.4179, 37.9104, -11.0000, -109.3814, 2.3304, 85.0113, 0.4148, 0.6094, 0.5426, -0.4027, -0.0387, 0.0049, -0.0112, 1005.4100, 0.0000, 0.0000, 0.0000
1, 0.6399, 63, 0.0255, 0.9476, 0.3125, 7.0113, -24.1085, 0.2231, 56.1194, 40.4478, -11.6667, -109.2993, 2.3983, 85.2241, 0.4142, 0.6083, 0.5432, -0.4042, -0.0163, 0.0046, -0.0177, 1005.4100, 0.0000, 0.0000, 0.0000
1, 0.6499, 64, 0.0373, 0.9652, 0.3129, 7.4768, -23.9715, 1.0026, 54.3284, 40.1493, -12.0000, -109.2106, 2.4822, 85.4414, 0.4134, 0.6073, 0.5437, -0.4058, -0.0060, 0.0218, -0.0159, 1005.4100, 0.0000, 0.0000, 0.0000
1, 0.6599, 65, 0.0432, 0.9673, 0.3028, 8.2582, -23.6701, -0.1148, 54.1791, 41.3433, -12.3333, -109.1139, 2.5594, 85.6541, 0.4128, 0.6062, 0.5442, -0.4075, -0.0014, 0.0234, -0.0243, 1005.4100, 0.0000, 0.0000, 0.0000
1, 0.6699, 66, 0.0471, 0.9730, 0.3212, 9.1674, -23.9425, -0.6021, 58.2090, 38.5075, -11.8333, -109.0080, 2.6338, 85.8739, 0.4122, 0.6050, 0.5447, -0.4091, 0.0011, 0.0285, -0.0042, 1005.4100, 0.0000, 0.0000, 0.0000
2, 0.8298, 83, -0.9213, 0.3725, -0.0654, -29.2084, 8.2136, -17.6512, -33.5821, 44.3284, 15.3333, -72.1862, -65.5618, 82.2114, -0.7216, -0.0856, -0.6553, 0.2063, -0.0109, -0.0213, 0.0612, 1003.6400, 0.0000, 0.0000, 0.0000
2, 0.8398, 84, -0.9353, 0.3863, -0.0755, -27.3510, 8.7169, -19.9335, -32.5373, 44.7761, 15.1667, -72.1901, -65.7251, 81.9431, -0.7221, -0.0861, -0.6555, 0.2037, -0.0237, -0.0051, 0.0503, 1003.6400, 0.0000, 0.0000, 0.0000
1, 0.6799, 67, 0.0432, 0.9769, 0.3191, 11.0941, -25.1421, -0.0324, 56.4179, 38.9552, -12.1667, -108.8860, 2.7097, 86.1056, 0.4117, 0.6037, 0.5452, -0.4109, -0.0041, 0.0318, -0.0042, 1005.4100, 0.0000, 0.0000, 0.0000
1, 0.6899, 68, 0.0531, 0.9830, 0.2950, 12.2788, -24.5584, -0.7216, 56.8657, 39.7015, -12.1667, -108.7488, 2.7804, 86.3369, 0.4112, 0.6023, 0.5456, -0.4128, 0.0046, 0.0372, -0.0260, 1005.4100, 0.0000, 0.0000, 0.0000
1, 0.7000, 69, 0.0472, 0.9790, 0.2989, 11.5091, -24.2842, -0.3035, 53.8806, 41.0448, -12.8333, -108.6093, 2.8565, 86.5626, 0.4108, 0.6010, 0.5460, -0.4146, -0.0027, 0.0325, -0.0198, 1005.4100, 0.0000, 0.0000, 0.0000
2, 0.8499, 85, -0.9549, 0.3666, -0.0763, -25.3021, 8.4300, -20.5515, -35.0746, 43.8806, 15.5000, -72.1526, -65.9016, 81.6495, -0.7226, -0.0865, -0.6557, 0.2010, -0.0420, -0.0220, 0.0489, 1003.6400, 0.0000, 0.0000, 0.0000
2, 0.8599, 86, -0.9667, 0.3587, -0.0707, -25.1567, 9.9324, -21.9750, -34.9254, 43.7313, 15.5000, -72.0827, -66.0918, 81.3235, -0.7232, -0.0868, -0.6558, 0.1983, -0.0525, -0.0269, 0.0540, 1003.6400, 0.0000, 0.0000, 0.0000
2, 0.8699, 87, -0.9626, 0.3509, -0.0787, -26.9251, 10.5763, -21.6158, -32.5373, 43.5821, 15.8333, -71.9879, -66.2817, 80.9560, -0.7239, -0.0872, -0.6559, 0.1954, -0.0471, -0.0316, 0.0457, 1003.6400, 0.0000, 0.0000, 0.0000
2, 0.8799, 88, -0.9646, 0.3510, -0.0867, -29.8219, 11.7215, -21.2923, -34.1791, 43.1343, 16.0000, -71.8945, -66.4626, 80.5574, -0.7246, -0.0878, -0.6559, 0.1924, -0.0478, -0.0286, 0.0374, 1003.6400, 0.0000, 0.0000, 0.0000
1, 0.7100, 70, 0.0511, 0.9713, 0.2969, 11.4381, -25.4962, 0.1084, 57.1642, 37.6119, -12.6667, -108.4808, 2.9342, 86.7918, 0.4102, 0.5997, 0.5465, -0.4165, -0.0001, 0.0241, -0.0197, 1005.4100, 0.0000, 0.0000, 0.0000
1, 0.7200, 71, 0.0432, 0.9536, 0.3047, 20.8276, -27.8488, 0.5205, 54.4776, 40.1493, -13.1667, -108.2992, 3.0163, 87.0431, 0.4098, 0.5982, 0.5468, -0.4186, -0.0094, 0.0055, -0.0088, 1005.4100, 0.0000, 0.0000, 0.0000
1, 0.7300, 72, 0.0845, 0.9929, 0.2874, 26.6321, -30.1538, 0.7620, 55.6716, 38.5075, -13.1667, -108.0223, 3.1204, 87.3150, 0.4098, 0.5962, 0.5468, -0.4215, 0.0300, 0.0434, -0.0215, 1005.4100, 0.0000, 0.0000, 0.0000
1, 0.7400, 73, 0.1021, 1.0203, 0.2879, 16.3516, -26.7364, -0.2122, 54.1791, 39.5522, -13.8333, -107.7885, 3.2126, 87.5718, 0.4096, 0.5945, 0.5469, -0.4239, 0.0461, 0.0696, -0.0171, 1005.4100, 0.0000, 0.0000, 0.0000
1, 0.7500, 74, 0.1197, 1.0182, 0.3084, 7.6457, -23.8125, -0.4731, 57.7612, 39.5522, -13.8333, -107.6692, 3.2983, 87.7996, 0.4089, 0.5933, 0.5473, -0.4258, 0.0622, 0.0669, 0.0054, 1005.4100, 0.0000, 0.0000, 0.0000
2, 0.8899, 89, -0.9645, 0.3470, -0.0887, -34.0385, 11.3694, -20.5722, -33.8806, 43.7313, 15.5000, -71.8312, -66.6355, 80.1518, -0.7253, -0.0887, -0.6560, 0.1892, -0.0465, -0.0298, 0.0349, 1003.6400, 0.0000, 0.0000, 0.0000
2, 0.8999, 90, -0.9744, 0.3470, -0.0949, -37.0743, 11.4425, -19.5127, -36.1194, 44.4776, 16.3333, -71.7967, -66.8005, 79.7317, -0.7260, -0.0899, -0.6560, 0.1857, -0.0553, -0.0272, 0.0281, 1003.6400, 0.0000, 0.0000, 0.0000
1, 0.7600, 75, 0.0962, 1.0006, 0.3038, 8.6536, -19.9738, -0.2220, 56.5672, 38.6567, -14.0000, -107.5776, 3.3689, 87.9966, 0.4083, 0.5922, 0.5477, -0.4272, 0.0374, 0.0489, 0.0024, 1005.4100, 0.0000, 0.0000, 0.0000
1, 0.7700, 76, 0.0963, 1.0008, 0.2836, 8.6133, -18.2852, 1.1994, 54.4776, 40.0000, -14.5000, -107.4648, 3.4412, 88.1664, 0.4079, 0.5913, 0.5479, -0.4288, 0.0362, 0.0486, -0.0160, 1005.4100, 0.0000, 0.0000, 0.0000
2, 0.9099, 91, -0.9903, 0.3430, -0.0835, -41.7313, 12.0889, -18.4383, -35.5224, 42.2388, 16.0000, -71.8080, -66.9543, 79.3171, -0.7266, -0.0914, -0.6562, 0.1822, -0.0701, -0.0289, 0.0387, 1003.6400, 0.0000, 0.0000, 0.0000
1, 0.7800, 77, 0.1041, 0.9910, 0.2856, 5.1369, -14.7623, 1.4804, 57.1642, 40.2985, -14.1667, -107.3831, 3.5241, 88.3118, 0.4074, 0.5906, 0.5480, -0.4301, 0.0426, 0.0385, -0.0126, 1005.4100, 0.0000, 0.0000, 0.0000
2, 0.9199, 92, -0.9942, 0.3412, -0.1055, -46.2417, 11.7350, -16.9629, -36.1194, 44.0299, 16.5000, -71.8632, -67.0925, 78.8978, -0.7272, -0.0934, -0.6563, 0.1784, -0.0730, -0.0287, 0.0157, 1003.6400, 0.0000, 0.0000, 0.0000
2, 0.9299, 93, -0.9981, 0.3391, -0.0957, -52.1805, 12.9522, -15.2312, -35.3731, 44.3284, 16.6667, -71.9557, -67.2150, 78.4643, -0.7277, -0.0957, -0.6564, 0.1744, -0.0762, -0.0291, 0.0243, 1003.6400, 0.0000, 0.0000, 0.0000
1, 0.7900, 78, 0.1001, 0.9772, 0.3016, 2.3408, -11.6668, 2.3268, 53.2836, 39.5522, -14.5000, -107.3387, 3.6024, 88.4142, 0.4068, 0.5902, 0.5481, -0.4310, 0.0373, 0.0245, 0.0042, 1005.4100, 0.0000, 0.0000, 0.0000
2, 0.9399, 94, -0.9940, 0.3294, -0.1076, -56.6503, 14.0234, -13.1615, -36.8657, 43.4328, 16.6667, -72.0949, -67.3158, 78.0191, -0.7282, -0.0985, -0.6565, 0.1702, -0.0714, -0.0376, 0.0110, 1003.6400, 0.0000, 0.0000, 0.0000
2, 0.9500, 95, -0.9823, 0.3352, -0.0933, -62.9239, 14.0998, -11.4714, -36.1194, 42.5373, 17.5000, -72.2967, -67.3983, 77.5881, -0.7287, -0.1018, -0.6567, 0.1658, -0.0591, -0.0309, 0.0236, 1003.6400, 0.0000, 0.0000, 0.0000
1, 0.8000, 79, 0.0845, 0.9695, 0.2811, 1.0234, -9.2581, 1.9834, 53.8806, 39.7015, -14.3333, -107.3071, 3.6724, 88.4886, 0.4063, 0.5900, 0.5481, -0.4318, 0.0204, 0.0168, -0.0158, 1005.4100, 0.0000, 0.0000, 0.0000
1, 0.8101, 80, 0.0884, 0.9636, 0.2872, -0.6889, -6.8771, 3.9595, 57.6119, 39.1045, -14.8333, -107.2959, 3.7417, 88.5360, 0.4059, 0.5899, 0.5480, -0.4324, 0.0231, 0.0109, -0.0095, 1005.4100, 0.0000, 0.0000, 0.0000
2, 0.9600, 96, -0.9842, 0.3333, -0.0894, -68.4961, 15.3192, -10.6315, -35.6716, 42.8358, 17.5000, -72.5478, -67.4680, 77.1458, -0.7290, -0.1055, -0.6568, 0.1612, -0.0606, -0.0323, 0.0255, 1003.6400, 0.0000, 0.0000, 0.0000
1, 0.8201, 81, 0.0806, 0.9617, 0.2769, -1.6995, -4.6990, 5.4472, 53.4328, 40.8955, -14.6667, -107.2902, 3.8216, 88.5623, 0.4054, 0.5901, 0.5478, -0.4329, 0.0139, 0.0091, -0.0196, 1005.4100, 0.0000, 0.0000, 0.0000
1, 0.8301, 82, 0.0727, 0.9656, 0.2829, -1.9854, -4.5635, 5.8683, 57.1642, 38.5075, -14.6667, -107.2951, 3.9002, 88.5791, 0.4049, 0.5903, 0.5476, -0.4333, 0.0047, 0.0130, -0.0137, 1005.4100, 0.0000, 0.0000, 0.0000
2, 0.9700, 97, -0.9665, 0.3450, -0.0809, -71.5290, 15.1782, -9.5769, -35.2239, 41.3433, 17.6667, -72.8338, -67.5235, 76.6996, -0.7294, -0.1096, -0.6569, 0.1564, -0.0425, -0.0202, 0.0320, 1003.6400, 0.0000, 0.0000, 0.0000
2, 0.9800, 98, -0.9706, 0.3587, -0.0768, -70.7420, 14.8220, -10.1803, -35.6716, 41.4925, 18.1667, -73.1500, -67.5779, 76.2801, -0.7296, -0.1137, -0.6571, 0.1516, -0.0462, -0.0063, 0.0338, 1003.6400, 0.0000, 0.0000, 0.0000
2, 0.9900, 99, -0.9689, 0.3842, -0.0764, -68.9847, 13.1036, -9.1001, -38.2090, 42.9851, 18.5000, -73.4859, -67.6373, 75.9005, -0.7297, -0.1176, -0.6573, 0.1469, -0.0441, 0.0195, 0.0318, 1003.6400, 0.0000, 0.0000, 0.0000
2, 1.0000, 100, -0.9651, 0.4019, -0.0760, -65.2220, 13.0933, -7.6844, -35.6716, 40.5970, 18.5000, -73.8069, -67.6775, 75.5371, -0.7298, -0.1215, -0.6575, 0.1425, -0.0401, 0.0371, 0.0299, 1003.6400, 0.0000, 0.0000, 0.0000
1, 0.8401, 83, 0.0786, 0.9831, 0.2913, -4.0815, -1.8853, 6.3652, 54.4776, 40.1493, -14.6667, -107.3166, 3.9726, 88.5832, 0.4044, 0.5906, 0.5474, -0.4336, 0.0093, 0.0307, -0.0057, 1005.4100, 0.0000, 0.0000, 0.0000
1, 0.8499, 84, 0.0707, 0.9869, 0.2953, -5.1077, 1.0314, 5.1836, 54.6269, 40.0000, -14.1667, -107.3574, 4.0261, 88.5549, 0.4041, 0.5910, 0.5472, -0.4335, 0.0005, 0.0348, -0.0023, 1005.4100, 0.0000, 0.0000, 0.0000
1, 0.8599, 85, 0.0707, 0.9927, 0.3034, -5.1559, 2.3943, 3.8567, 55.6716, 38.8060, -14.5000, -107.4054, 4.0585, 88.5159, 0.4038, 0.5915, 0.5471, -0.4333, -0.0001, 0.0409, 0.0051, 1005.4100, 0.0000, 0.0000, 0.0000
1, 0.8699, 86, 0.0767, 0.9793, 0.2791, -5.0882, 4.1743, 3.4494, 54.4776, 40.7463, -14.5000, -107.4444, 4.0830, 88.4604, 0.4037, 0.5920, 0.5469, -0.4331, 0.0055, 0.0277, -0.0200, 1005.4100, 0.0000, 0.0000, 0.0000
1, 0.8799, 87, 0.0530, 0.9713, 0.2969, -5.2812, 4.8920, 2.6089, 53.7313, 41.1940, -14.0000, -107.4925, 4.0938, 88.4021, 0.4036, 0.5925, 0.5467, -0.4327, -0.0183, 0.0199, -0.0029, 1005.4100, 0.0000, 0.0000, 0.0000
1, 0.8899, 88, 0.0668, 0.9538, 0.2868, -5.2916, 5.3852, 2.9648, 58.5075, 38.6567, -14.0000, -107.5436, 4.0972, 88.3423, 0.4035, 0.5929, 0.5466, -0.4322, -0.0046, 0.0028, -0.0139, 1005.4100, 0.0000, 0.0000, 0.0000
2, 1.0100, 101, -0.9553, 0.4118, -0.0835, -61.1319, 12.4468, -8.4338, -37.9104, 43.5821, 19.3333, -74.0961, -67.7146, 75.1783, -0.7299, -0.1252, -0.6575, 0.1383, -0.0300, 0.0471, 0.0204, 1003.6400, 0.0000, 0.0000, 0.0000
2, 1.0198, 102, -0.9692, 0.4256, -0.1035, -53.4809, 12.4354, -8.7378, -35.5224, 41.6418, 19.3333, -74.3244, -67.7551, 74.8244, -0.7301, -0.1285, -0.6575, 0.1345, -0.0436, 0.0611, -0.0013, 1003.6400, 0.0000, 0.0000, 0.0000
2, 1.0298, 103, -0.9890, 0.4276, -0.1199, -46.8710, 11.4980, -8.9686, -38.6567, 41.9403, 20.0000, -74.4729, -67.7988, 74.4581, -0.7303, -0.1313, -0.6574, 0.1311, -0.0631, 0.0635, -0.0188, 1003.6400, 0.0000, 0.0000, 0.0000
1, 0.8999, 89, 0.0531, 0.9654, 0.2948, -3.8119, 3.4883, 2.0466, 55.5224, 39.8507, -14.3333, -107.5836, 4.0925, 88.2924, 0.4035, 0.5933, 0.5465, -0.4318, -0.0183, 0.0146, -0.0065, 1005.4100, 0.0000, 0.0000, 0.0000
1, 0.9099, 90, 0.0589, 0.9713, 0.2929, -5.3875, 4.4086, 1.2665, 56.5672, 38.8060, -13.8333, -107.6230, 4.0893, 88.2447, 0.4035, 0.5937, 0.5464, -0.4315, -0.0124, 0.0207, -0.0090, 1005.4100, 0.0000, 0.0000, 0.0000
1, 0.9199, 91, 0.0550, 0.9712, 0.3010, -8.1604, 5.0948, 1.6710, 58.2090, 37.3134, -13.8333, -107.6909, 4.0852, 88.1951, 0.4034, 0.5941, 0.5464, -0.4310, -0.0163, 0.0209, -0.0021, 1005.4100, 0.0000, 0.0000, 0.0000
1, 0.9299, 92, 0.0628, 0.9653, 0.3152, -8.0938, 6.0198, 1.5383, 57.7612, 38.2090, -13.8333, -107.7685, 4.0770, 88.1398, 0.4032, 0.5946, 0.5465, -0.4303, -0.0083, 0.0154, 0.0108, 1005.4100, 0.0000, 0.0000, 0.0000
1, 0.9399, 93, 0.0589, 0.9576, 0.2969, -8.4361, 5.3067, 1.6000, 58.6567, 37.4627, -13.5000, -107.8521, 4.0644, 88.0866, 0.4031, 0.5951, 0.5465, -0.4297, -0.0120, 0.0081, -0.0089, 1005.4100, 0.0000, 0.0000, 0.0000
1, 0.9500, 94, 0.0490, 0.9496, 0.3149, -7.7451, 5.3832, 1.5361, 57.9104, 38.6567, -14.1667, -107.9269, 4.0541, 88.0259, 0.4030, 0.5957, 0.5465, -0.4291, -0.0217, 0.0005, 0.0078, 1005.4100, 0.0000, 0.0000, 0.0000
2, 1.0398, 104, -1.0049, 0.4334, -0.1222, -37.7198, 12.9071, -7.9184, -35.5224, 40.8955, 19.8333, -74.5300, -67.8366, 74.0717, -0.7307, -0.1336, -0.6571, 0.1281, -0.0788, 0.0698, -0.0216, 1003.6400, 0.0000, 0.0000, 0.0000
1, 0.9700, 95, 0.0549, 0.9633, 0.3110, -7.7099, 4.0480, 0.2583, 54.4776, 76.2687, -13.8333, -108.0581, 4.0246, 87.9358, 0.4028, 0.5964, 0.5467, -0.4280, -0.0152, 0.0149, 0.0018, 1005.4100, 0.0000, 0.0000, 0.0000
1, 0.9800, 96, 0.0706, 0.9595, 0.3092, -6.2683, 3.9833, 0.6219, 54.6269, 39.7015, -13.6667, -108.1220, 4.0118, 87.8971, 0.4026, 0.5968, 0.5468, -0.4275, 0.0007, 0.0114, -0.0011, 1005.4100, 0.0000, 0.0000, 0.0000
2, 1.0498, 105, -1.0168, 0.4374, -0.1344, -27.4407, 15.1019, -7.7788, -37.3134, 42.5373, 20.0000, -74.4555, -67.8678, 73.6438, -0.7312, -0.1354, -0.6566, 0.1256, -0.0904, 0.0744, -0.0334, 1003.6400, 0.0000, 0.0000, 0.0000
2, 1.0598, 106, -1.0245, 0.4256, -0.1486, -20.5508, 16.8694, -6.0482, -37.0149, 41.0448, 20.0000, -74.2338, -67.8814, 73.1345, -0.7320, -0.1368, -0.6558, 0.1235, -0.0981, 0.0633, -0.0463, 1003.6400, 0.0000, 0.0000, 0.0000
2, 1.0698, 107, -1.0442, 0.4059, -0.1435, -13.9856, 18.9994, -6.0676, -35.8209, 41.1940, 19.8333, -73.9004, -67.8855, 72.5817, -0.7330, -0.1378, -0.6548, 0.1219, -0.1177, 0.0443, -0.0391, 1003.6400, 0.0000, 0.0000, 0.0000
1, 0.9900, 97, 0.0824, 0.9731, 0.3115, -7.6550, 4.8959, 0.6881, 57.7612, 37.9104, -13.1667, -108.1923, 4.0085, 87.8464, 0.4025, 0.5973, 0.5468, -0.4270, 0.0125, 0.0255, 0.0000, 1005.4100, 0.0000, 0.0000, 0.0000
2, 1.0798, 108, -1.0657, 0.3745, -0.1366, -10.4342, 22.1953, -3.0484, -37.4627, 41.4925, 20.1667, -73.4703, -67.8709, 71.9729, -0.7342, -0.1386, -0.6536, 0.1205, -0.1393, 0.0133, -0.0294, 1003.6400, 0.0000, 0.0000, 0.0000
2, 1.0898, 109, -1.0574, 0.3293, -0.1291, -12.3607, 25.8280, 0.0282, -37.0149, 41.6418, 20.0000, -72.9736, -67.8292, 71.2961, -0.7355, -0.1396, -0.6521, 0.1192, -0.1313, -0.0315, -0.0186, 1003.6400, 0.0000, 0.0000, 0.0000
1, 1.0000, 98, 0.0804, 0.9712, 0.3094, -7.3871, 6.5315, 0.6333, 55.9701, 38.9552, -13.3333, -108.2670, 3.9967, 87.7848, 0.4024, 0.5978, 0.5468, -0.4263, 0.0108, 0.0239, -0.0033, 1005.4100, 0.0000, 0.0000, 0.0000
1, 1.0100, 99, 0.0785, 0.9594, 0.3153, -6.7003, 8.1013, 0.3703, 57.3134, 39.5522, -13.5000, -108.3412, 3.9764, 87.7121, 0.4024, 0.5983, 0.5468, -0.4256, 0.0091, 0.0125, 0.0014, 1005.4100, 0.0000, 0.0000, 0.0000
1, 1.0200, 100, 0.0843, 0.9633, 0.3215, -5.3219, 10.1751, -0.0939, 57.1642, 38.0597, -13.3333, -108.4063, 3.9568, 87.6233, 0.4024, 0.5989, 0.5466, -0.4249, 0.0153, 0.0167, 0.0065, 1005.4100, 0.0000, 0.0000, 0.0000
1, 1.0300, 101, 0.1000, 0.9653, 0.3197, -4.8747, 10.5877, 1.4621, 56.2687, 39.7015, -13.0000, -108.4594, 3.9488, 87.5170, 0.4026, 0.5996, 0.5463, -0.4242, 0.0311, 0.0190, 0.0039, 1005.4100, 0.0000, 0.0000, 0.0000
2, 1.0999, 110, -1.0330, 0.2706, -0.1373, -20.5987, 30.6152, 2.1669, -38.5075, 42.8358, 19.6667, -72.4602, -67.7565, 70.5401, -0.7370, -0.1410, -0.6505, 0.1177, -0.1074, -0.0903, -0.0232, 1003.6400, 0.0000, 0.0000, 0.0000
2, 1.1099, 111, -1.0010, 0.2354, -0.1370, -30.5589, 33.8373, 3.7064, -36.4179, 40.2985, 19.5000, -71.9630, -67.6529, 69.6962, -0.7386, -0.1431, -0.6486, 0.1157, -0.0761, -0.1261, -0.0193, 1003.6400, 0.0000, 0.0000, 0.0000
1, 1.0400, 102, 0.1118, 0.9653, 0.3199, -3.9677, 10.6702, 0.9776, 55.0746, 38.9552, -12.5000, -108.5099, 3.9474, 87.4089, 0.4027, 0.6003, 0.5459, -0.4236, 0.0429, 0.0193, 0.0032, 1005.4100, 0.0000, 0.0000, 0.0000
1, 1.0500, 103, 0.1059, 0.9574, 0.3278, -3.9612, 9.8190, 0.9003, 57.3134, 38.3582, -13.0000, -108.5570, 3.9450, 87.2950, 0.4029, 0.6010, 0.5455, -0.4230, 0.0371, 0.0117, 0.0103, 1005.4100, 0.0000, 0.0000, 0.0000
1, 1.0601, 104, 0.1058, 0.9534, 0.3399, -1.7529, 7.4136, 1.5329, 55.5224, 38.9552, -12.8333, -108.5946, 3.9562, 87.2059, 0.4030, 0.6016, 0.5451, -0.4225, 0.0368, 0.0079, 0.0218, 1005.4000, 0.0000, 0.0000, 0.0000
2, 1.1199, 112, -0.9787, 0.1904, -0.1431, -46.4296, 35.0753, 3.8308, -35.5224, 40.5970, 19.5000, -71.5781, -67.5377, 68.8299, -0.7400, -0.1462, -0.6467, 0.1130, -0.0546, -0.1721, -0.0223, 1003.6400, 0.0000, 0.0000, 0.0000
2, 1.1299, 113, -0.9629, 0.1903, -0.1288, -64.3288, 36.1031, 3.7944, -38.9552, 41.1940, 19.8333, -71.3412, -67.4071, 67.9419, -0.7413, -0.1504, -0.6449, 0.1093, -0.0397, -0.1737, -0.0058, 1003.6400, 0.0000, 0.0000, 0.0000
1, 1.0701, 105, 0.0921, 0.9514, 0.3458, 0.2980, 7.2760, 2.4643, 54.1791, 40.4478, -12.6667, -108.6254, 3.9801, 87.1381, 0.4030, 0.6021, 0.5448, -0.4223, 0.0226, 0.0060, 0.0272, 1005.4000, 0.0000, 0.0000, 0.0000
1, 1.0801, 106, 0.0803, 0.9474, 0.3497, 2.8203, 9.6283, 3.2793, 58.5075, 38.2090, -13.1667, -108.6271, 3.9859, 87.0547, 0.4032, 0.6025, 0.5443, -0.4220, 0.0108, 0.0021, 0.0310, 1005.4000, 0.0000, 0.0000, 0.0000
1, 1.0901, 107, 0.0823, 0.9514, 0.3376, 6.8529, 9.9222, 5.0053, 53.8806, 40.5970, -12.8333, -108.5888, 4.0042, 86.9559, 0.4037, 0.6029, 0.5436, -0.4219, 0.0125, 0.0059, 0.0196, 1005.4000, 0.0000, 0.0000, 0.0000
1, 1.0999, 108, 0.0883, 0.9615, 0.3054, 6.8737, 10.0039, 4.0206, 57.4627, 37.1642, -12.8333, -108.5237, 4.0196, 86.8458, 0.4044, 0.6033, 0.5427, -0.4219, 0.0182, 0.0156, -0.0115, 1005.4000, 0.0000, 0.0000, 0.0000
1, 1.1099, 109, 0.0883, 0.9576, 0.3053, 5.6045, 12.3313, 4.6625, 54.6269, 39.8507, -12.8333, -108.4714, 4.0282, 86.7184, 0.4051, 0.6037, 0.5418, -0.4218, 0.0181, 0.0115, -0.0107, 1005.4000, 0.0000, 0.0000, 0.0000
1, 1.1199, 110, 0.0707, 0.9654, 0.2991, 6.9005, 13.8283, 4.9672, 55.5224, 37.3134, -13.1667, -108.4097, 4.0321, 86.5694, 0.4059, 0.6042, 0.5408, -0.4215, 0.0004, 0.0189, -0.0159, 1005.4000, 0.0000, 0.0000, 0.0000
1, 1.1299, 111, 0.0610, 0.9734, 0.2727, 4.1240, 12.8037, 5.9914, 54.3284, 40.0000, -12.6667, -108.3506, 4.0354, 86.4123, 0.4068, 0.6047, 0.5397, -0.4213, -0.0094, 0.0267, -0.0413, 1005.4000, 0.0000, 0.0000, 0.0000
2, 1.1399, 114, -0.9391, 0.1963, -0.1420, -79.5353, 35.9870, 3.0769, -37.3134, 41.1940, 19.8333, -71.2650, -67.2780, 67.0555, -0.7423, -0.1556, -0.6432, 0.1047, -0.0168, -0.1694, -0.0179, 1003.6400, 0.0000, 0.0000, 0.0000
2, 1.1499, 115, -0.9153, 0.1865, -0.1276, -96.8880, 36.0936, 0.5986, -35.3731, 40.5970, 20.3333, -71.3520, -67.1657, 66.1602, -0.7431, -0.1619, -0.6417, 0.0991, 0.0063, -0.1812, -0.0035, 1003.6400, 0.0000, 0.0000, 0.0000
2, 1.1599, 116, -0.8800, 0.2180, -0.1222, -108.8329, 35.7637, -1.9401, -37.3134, 43.1343, 20.8333, -71.5603, -67.0744, 65.2423, -0.7437, -0.1688, -0.6402, 0.0925, 0.0410, -0.1516, 0.0010, 1003.6400, 0.0000, 0.0000, 0.0000
2, 1.1699, 117, -0.8605, 0.2454, -0.1114, -120.3725, 34.2267, -6.6542, -38.5075, 41.9403, 21.1667, -71.9006, -67.0184, 64.3471, -0.7439, -0.1764, -0.6389, 0.0851, 0.0602, -0.1257, 0.0099, 1003.6400, 0.0000, 0.0000, 0.0000
1, 1.1399, 112, 0.0728, 0.9853, 0.2629, -0.2251, 12.7010, 6.0946, 55.6716, 38.2090, -13.0000, -108.3217, 4.0479, 86.2559, 0.4075, 0.6054, 0.5388, -0.4209, 0.0022, 0.0383, -0.0507, 1005.4000, 0.0000, 0.0000, 0.0000
1, 1.1499, 113, 0.0708, 1.0008, 0.2711, -3.8113, 14.2433, 5.5841, 55.9701, 38.8060, -12.5000, -108.3370, 4.0586, 86.0929, 0.4079, 0.6063, 0.5379, -0.4203, 0.0000, 0.0540, -0.0427, 1005.4000, 0.0000, 0.0000, 0.0000
1, 1.1599, 114, 0.0747, 1.0046, 0.2874, -5.3974, 14.3751, 5.5013, 58.2090, 38.6567, -12.5000, -108.3778, 4.0668, 85.9275, 0.4083, 0.6072, 0.5372, -0.4196, 0.0038, 0.0580, -0.0271, 1005.4000, 0.0000, 0.0000, 0.0000
1, 1.1699, 115, 0.0786, 1.0065, 0.2956, -7.7916, 16.2913, 4.0184, 54.1791, 40.1493, -12.6667, -108.4451, 4.0594, 85.7587, 0.4086, 0.6082, 0.5365, -0.4186, 0.0078, 0.0602, -0.0200, 1005.4000, 0.0000, 0.0000, 0.0000
1, 1.1799, 116, 0.0785, 0.9966, 0.3056, -8.6232, 17.7078, 3.8117, 56.2687, 39.2537, -12.1667, -108.5337, 4.0418, 85.5764, 0.4089, 0.6093, 0.5360, -0.4175, 0.0080, 0.0508, -0.0115, 1005.4000, 0.0000, 0.0000, 0.0000
1, 1.1899, 117, 0.0707, 0.9732, 0.3073, -8.8086, 17.6460, 2.8241, 54.7761, 39.2537, -12.3333, -108.6311, 4.0139, 85.3965, 0.4092, 0.6104, 0.5355, -0.4162, 0.0007, 0.0279, -0.0114, 1005.4000, 0.0000, 0.0000, 0.0000
2, 1.1799, 118, -0.8351, 0.2748, -0.0825, -127.5377, 32.4725, -12.6538, -36.2687, 40.1493, 21.8333, -72.3351, -67.0231, 63.4648, -0.7439, -0.1841, -0.6379, 0.0769, 0.0856, -0.0972, 0.0360, 1003.6400, 0.0000, 0.0000, 0.0000
1, 1.2000, 118, 0.0568, 0.9612, 0.3353, -9.3979, 18.7258, 1.0679, 58.0597, 37.3134, -12.0000, -108.7347, 3.9676, 85.2071, 0.4095, 0.6115, 0.5350, -0.4148, -0.0124, 0.0164, 0.0149, 1005.4000, 0.0000, 0.0000, 0.0000
2, 1.1899, 119, -0.8118, 0.3140, -0.0674, -129.1481, 30.1396, -18.9902, -40.2985, 40.4478, 22.5000, -72.8178, -67.0947, 62.5961, -0.7435, -0.1916, -0.6370, 0.0682, 0.1094, -0.0578, 0.0476, 1003.6400, 0.0000, 0.0000, 0.0000
2, 1.2000, 120, -0.7865, 0.3552, -0.0483, -126.7546, 28.1587, -25.9160, -36.5672, 39.1045, 22.6667, -73.2934, -67.2329, 61.7386, -0.7430, -0.1987, -0.6363, 0.0592, 0.1356, -0.0155, 0.0630, 1003.6400, 0.0000, 0.0000, 0.0000
1, 1.2100, 119, 0.0490, 0.9456, 0.3270, -8.9499, 20.2781, 2.2812, 57.9104, 38.0597, -12.0000, -108.8397, 3.9170, 85.0159, 0.4099, 0.6126, 0.5346, -0.4134, -0.0193, 0.0014, 0.0048, 1005.4000, 0.0000, 0.0000, 0.0000
2, 1.2100, 121, -0.7729, 0.3845, -0.0316, -119.8509, 24.0289, -32.4229, -39.5522, 40.1493, 23.1667, -73.7409, -67.4430, 60.9132, -0.7424, -0.2051, -0.6358, 0.0501, 0.1506, 0.0163, 0.0758, 1003.6400, 0.0000, 0.0000, 0.0000
1, 1.2200, 120, 0.0431, 0.9396, 0.3390, -7.6442, 19.3589, 2.7775, 57.3134, 38.8060, -11.3333, -108.9371, 3.8721, 84.8239, 0.4103, 0.6137, 0.5341, -0.4120, -0.0245, -0.0041, 0.0152, 1005.4000, 0.0000, 0.0000, 0.0000
2, 1.2200, 122, -0.7673, 0.4179, -0.0369, -106.4984, 21.3897, -39.8072, -39.8507, 40.4478, 24.0000, -74.1083, -67.7257, 60.1115, -0.7417, -0.2104, -0.6355, 0.0413, 0.1581, 0.0534, 0.0669, 1003.6400, 0.0000, 0.0000, 0.0000
1, 1.2300, 121, 0.0352, 0.9397, 0.3308, -6.5576, 19.7139, 3.4936, 57.0149, 38.6567, -11.1667, -109.0235, 3.8319, 84.6340, 0.4107, 0.6148, 0.5335, -0.4107, -0.0316, -0.0036, 0.0056, 1005.4000, 0.0000, 0.0000, 0.0000
1, 1.2400, 122, 0.0470, 0.9415, 0.3451, -6.5061, 20.6312, 4.0647, 58.3582, 38.3582, -11.6667, -109.1058, 3.7960, 84.4307, 0.4112, 0.6159, 0.5329, -0.4094, -0.0192, -0.0013, 0.0186, 1005.4000, 0.0000, 0.0000, 0.0000
2, 1.2300, 123, -0.7875, 0.4551, -0.0230, -89.6297, 17.5307, -46.7924, -37.1642, 37.6119, 24.6667, -74.3581, -68.0892, 59.3545, -0.7411, -0.2142, -0.6355, 0.0329, 0.1403, 0.0957, 0.0777, 1003.6100, 0.0000, 0.0000, 0.0000
1, 1.2500, 123, 0.0528, 0.9395, 0.3493, -5.5755, 20.1928, 5.8290, 56.5672, 39.8507, -11.3333, -109.1867, 3.7733, 84.2282, 0.4116, 0.6171, 0.5321, -0.4082, -0.0130, -0.0029, 0.0213, 1005.4000, 0.0000, 0.0000, 0.0000
1, 1.2600, 124, 0.0626, 0.9317, 0.3594, -5.3699, 20.6920, 5.7644, 57.9104, 38.6567, -11.5000, -109.2589, 3.7581, 84.0199, 0.4120, 0.6183, 0.5313, -0.4071, -0.0030, -0.0103, 0.0303, 1005.4000, 0.0000, 0.0000, 0.0000
1, 1.2700, 125, 0.0724, 0.9298, 0.3474, -4.2178, 23.4668, 6.0080, 54.4776, 40.2985, -11.5000, -109.3265, 3.7432, 83.7964, 0.4125, 0.6195, 0.5304, -0.4059, 0.0071, -0.0118, 0.0171, 1005.4000, 0.0000, 0.0000, 0.0000
2, 1.2400, 124, -0.8017, 0.4844, -0.0149, -68.6905, 13.3794, -53.6818, -37.3134, 37.9104, 24.8333, -74.4553, -68.5254, 58.6515, -0.7405, -0.2164, -0.6357, 0.0254, 0.1289, 0.1317, 0.0832, 1003.6100, 0.0000, 0.0000, 0.0000
2, 1.2500, 125, -0.8414, 0.4961, -0.0257, -46.9969, 9.0811, -59.4958, -39.1045, 37.3134, 25.0000, -74.3696, -69.0288, 57.9945, -0.7402, -0.2167, -0.6362, 0.0187, 0.0924, 0.1515, 0.0707, 1003.6100, 0.0000, 0.0000, 0.0000
2, 1.2600, 126, -0.8850, 0.5019, -0.0307, -23.5615, 7.4119, -62.6600, -37.4627, 35.8209, 24.8333, -74.0980, -69.5729, 57.3794, -0.7400, -0.2155, -0.6370, 0.0131, 0.0521, 0.1663, 0.0649, 1003.6100, 0.0000, 0.0000, 0.0000
2, 1.2698, 127, -0.9067, 0.5020, -0.0492, -0.4965, 6.0260, -64.9258, -39.2537, 35.8209, 25.5000, -73.5996, -70.1476, 56.7757, -0.7402, -0.2125, -0.6379, 0.0087, 0.0338, 0.1762, 0.0467, 1003.6100, 0.0000, 0.0000, 0.0000
2, 1.2798, 128, -0.9323, 0.4862, -0.0560, 18.5869, 4.6493, -68.1280, -38.8060, 34.7761, 25.3333, -72.8663, -70.7510, 56.1347, -0.7406, -0.2081, -0.6388, 0.0053, 0.0118, 0.1712, 0.0411, 1003.6100, 0.0000, 0.0000, 0.0000
1, 1.2800, 126, 0.0626, 0.9278, 0.3513, -3.1878, 24.8244, 5.8870, 58.3582, 38.6567, -11.1667, -109.3848, 3.7152, 83.5496, 0.4132, 0.6208, 0.5294, -0.4046, -0.0022, -0.0135, 0.0201, 1005.4000, 0.0000, 0.0000, 0.0000
1, 1.2900, 127, 0.0588, 0.9494, 0.3373, -2.0289, 26.1784, 6.1894, 53.4328, 40.5970, -10.8333, -109.4295, 3.6873, 83.2834, 0.4140, 0.6221, 0.5282, -0.4033, -0.0056, 0.0083, 0.0053, 1005.4000, 0.0000, 0.0000, 0.0000
1, 1.3000, 128, 0.0510, 0.9690, 0.3252, -2.1644, 25.7515, 6.1848, 55.6716, 39.5522, -11.0000, -109.4623, 3.6527, 83.0208, 0.4149, 0.6233, 0.5271, -0.4020, -0.0127, 0.0281, -0.0073, 1005.4000, 0.0000, 0.0000, 0.0000
1, 1.3101, 129, 0.0490, 0.9768, 0.3354, -4.0978, 28.0871, 5.6243, 55.8209, 38.8060, -10.8333, -109.5100, 3.6105, 82.7439, 0.4158, 0.6246, 0.5259, -0.4005, -0.0140, 0.0360, 0.0021, 1005.4000, 0.0000, 0.0000, 0.0000
1, 1.3201, 130, 0.0471, 0.9808, 0.3212, -5.7210, 30.4075, 6.6856, 54.1791, 40.2985, -10.1667, -109.5778, 3.5687, 82.4413, 0.4167, 0.6261, 0.5246, -0.3989, -0.0152, 0.0404, -0.0132, 1005.4000, 0.0000, 0.0000, 0.0000
2, 1.2898, 129, -0.9460, 0.4685, -0.0487, 35.6635, 3.2685, -68.9027, -40.4478, 35.6716, 25.0000, -71.9164, -71.3729, 55.4520, -0.7413, -0.2025, -0.6399, 0.0027, 0.0016, 0.1649, 0.0505, 1003.6100, 0.0000, 0.0000, 0.0000
1, 1.3301, 131, 0.0627, 0.9729, 0.3335, -7.3236, 31.5279, 7.1036, 58.3582, 38.0597, -10.5000, -109.6643, 3.5297, 82.1217, 0.4175, 0.6277, 0.5233, -0.3971, 0.0011, 0.0330, -0.0024, 1005.4000, 0.0000, 0.0000, 0.0000
1, 1.3401, 132, 0.0705, 0.9709, 0.3397, -6.4494, 33.0892, 7.7573, 53.7313, 39.7015, -9.8333, -109.7511, 3.4948, 81.7909, 0.4184, 0.6295, 0.5220, -0.3954, 0.0096, 0.0315, 0.0024, 1005.4000, 0.0000, 0.0000, 0.0000
1, 1.3499, 133, 0.0764, 0.9651, 0.3397, -3.7151, 34.5909, 8.5671, 58.3582, 38.2090, -9.8333, -109.8204, 3.4578, 81.4391, 0.4194, 0.6312, 0.5204, -0.3936, 0.0161, 0.0260, 0.0012, 1005.4000, 0.0000, 0.0000, 0.0000
1, 1.3699, 134, 0.0725, 0.9906, 0.3277, -1.1187, 42.2867, 7.7367, 57.6119, 38.0597, -9.3333, -109.8934, 3.3507, 80.6528, 0.4222, 0.6347, 0.5167, -0.3898, 0.0141, 0.0518, -0.0119, 1005.4000, 0.0000, 0.0000, 0.0000
1, 1.3799, 135, 0.0765, 0.9809, 0.3196, -3.3157, 44.4498, 9.8478, 56.8657, 37.9104, -9.6667, -109.9352, 3.2899, 80.2063, 0.4238, 0.6367, 0.5146, -0.3876, 0.0191, 0.0423, -0.0208, 1005.4000, 0.0000, 0.0000, 0.0000
1, 1.3899, 136, 0.0588, 0.9729, 0.3375, -4.1200, 44.4216, 11.9527, 55.5224, 37.7612, -9.1667, -109.9971, 3.2442, 79.7413, 0.4252, 0.6388, 0.5124, -0.3854, 0.0022, 0.0347, -0.0039, 1005.4000, 0.0000, 0.0000, 0.0000
2, 1.2998, 130, -0.9378, 0.4431, -0.0608, 48.2294, 2.5350, -68.9458, -40.7463, 35.2239, 25.1667, -70.7622, -72.0018, 54.7126, -0.7422, -0.1958, -0.6409, 0.0008, 0.0132, 0.1514, 0.0410, 1003.6100, 0.0000, 0.0000, 0.0000
2, 1.3098, 131, -0.9395, 0.4117, -0.0573, 56.7022, 2.3044, -67.9638, -40.8955, 34.4776, 24.6667, -69.4624, -72.6230, 53.9237, -0.7432, -0.1885, -0.6419, -0.0004, 0.0148, 0.1320, 0.0475, 1003.6100, 0.0000, 0.0000, 0.0000
1, 1.3999, 137, 0.0704, 0.9532, 0.3577, 0.4082, 43.5860, 13.3922, 58.6567, 37.9104, -9.3333, -110.0396, 3.2223, 79.2794, 0.4266, 0.6410, 0.5101, -0.3833, 0.0142, 0.0152, 0.0156, 1005.4000, 0.0000, 0.0000, 0.0000
2, 1.3198, 132, -0.9552, 0.3960, -0.0718, 64.1827, 1.7161, -66.1252, -39.4030, 33.2836, 24.3333, -68.0443, -73.2285, 53.0903, -0.7443, -0.1808, -0.6429, -0.0012, 0.0023, 0.1284, 0.0360, 1003.6100, 0.0000, 0.0000, 0.0000
1, 1.4099, 138, 0.0822, 0.9726, 0.3702, 7.1101, 42.6061, 16.4680, 56.7164, 37.7612, -9.0000, -110.0184, 3.2210, 78.8234, 0.4283, 0.6429, 0.5075, -0.3817, 0.0260, 0.0345, 0.0284, 1005.4000, 0.0000, 0.0000, 0.0000
2, 1.3298, 133, -0.9629, 0.3764, -0.0684, 64.2114, 1.1369, -63.3459, -42.2388, 32.8358, 24.0000, -66.5543, -73.8030, 52.2181, -0.7453, -0.1731, -0.6439, -0.0016, -0.0026, 0.1205, 0.0426, 1003.6100, 0.0000, 0.0000, 0.0000
1, 1.4199, 139, 0.0920, 0.9727, 0.3602, 11.4361, 43.5516, 17.2163, 57.1642, 37.7612, -8.8333, -109.9433, 3.2382, 78.3631, 0.4301, 0.6447, 0.5046, -0.3804, 0.0355, 0.0342, 0.0197, 1005.4000, 0.0000, 0.0000, 0.0000
2, 1.3398, 134, -0.9686, 0.3548, -0.0788, 65.4161, 0.6961, -59.7457, -41.4925, 32.0896, 23.8333, -65.0379, -74.3381, 51.3233, -0.7463, -0.1655, -0.6447, -0.0018, -0.0057, 0.1101, 0.0352, 1003.6100, 0.0000, 0.0000, 0.0000
2, 1.3499, 135, -0.9783, 0.3313, -0.0913, 61.2467, 0.8286, -54.1261, -40.2985, 32.3881, 23.3333, -63.5326, -74.8353, 50.4265, -0.7472, -0.1582, -0.6455, -0.0018, -0.0131, 0.0972, 0.0253, 1003.6100, 0.0000, 0.0000, 0.0000
2, 1.3599, 136, -0.9821, 0.3176, -0.0956, 56.5886, 1.1769, -48.8013, -42.8358, 31.9403, 23.1667, -62.0871, -75.2797, 49.5469, -0.7480, -0.1515, -0.6462, -0.0017, -0.0149, 0.0931, 0.0234, 1003.6100, 0.0000, 0.0000, 0.0000
2, 1.3699, 137, -0.9898, 0.2980, -0.1080, 47.0876, 1.0318, -42.9259, -43.5821, 31.7910, 23.0000, -60.7339, -75.6626, 48.6885, -0.7487, -0.1456, -0.6467, -0.0016, -0.0209, 0.0820, 0.0131, 1003.6100, 0.0000, 0.0000, 0.0000
1, 1.4299, 140, 0.0782, 0.9531, 0.3659, 14.1290, 49.5185, 18.7661, 53.2836, 39.5522, -8.6667, -109.8460, 3.2515, 77.8634, 0.4323, 0.6466, 0.5014, -0.3790, 0.0215, 0.0140, 0.0270, 1005.4000, 0.0000, 0.0000, 0.0000
1, 1.4399, 141, 0.0470, 0.9376, 0.3431, 22.7358, 56.4055, 17.8392, 57.7612, 38.0597, -8.8333, -109.6866, 3.2376, 77.2940, 0.4351, 0.6484, 0.4977, -0.3775, -0.0095, -0.0024, 0.0067, 1005.4000, 0.0000, 0.0000, 0.0000
1, 1.4500, 142, 0.0274, 0.9533, 0.3369, 22.5086, 55.8586, 15.7208, 56.2687, 39.1045, -9.1667, -109.4839, 3.1999, 76.7136, 0.4383, 0.6501, 0.4939, -0.3760, -0.0284, 0.0120, 0.0039, 1005.4000, 0.0000, 0.0000, 0.0000
1, 1.4600, 143, 0.0235, 0.9532, 0.3389, 11.1302, 55.1413, 15.5484, 58.3582, 37.7612, -9.0000, -109.3653, 3.1539, 76.1527, 0.4411, 0.6519, 0.4905, -0.3741, -0.0316, 0.0112, 0.0078, 1005.4000, 0.0000, 0.0000, 0.0000
2, 1.3799, 138, -0.9896, 0.2804, -0.1182, 38.5926, 1.6640, -35.0349, -45.0746, 32.5373, 22.8333, -59.5534, -75.9728, 47.9078, -0.7493, -0.1408, -0.6471, -0.0016, -0.0194, 0.0715, 0.0047, 1003.6100, 0.0000, 0.0000, 0.0000
2, 1.3899, 139, -0.9874, 0.2707, -0.1341, 25.7782, 2.7371, -29.1311, -44.3284, 31.1940, 22.8333, -58.5204, -76.2173, 47.1554, -0.7498, -0.1371, -0.6473, -0.0019, -0.0162, 0.0675, -0.0097, 1003.6100, 0.0000, 0.0000, 0.0000
1, 1.4700, 144, -0.0058, 0.9359, 0.3019, 8.0803, 56.2524, 15.8837, 54.7761, 39.4030, -8.8333, -109.3116, 3.1078, 75.5760, 0.4434, 0.6540, 0.4872, -0.3718, -0.0600, -0.0064, -0.0283, 1005.4000, 0.0000, 0.0000, 0.0000
1, 1.4800, 145, -0.0214, 0.9283, 0.2773, 7.6539, 54.7479, 16.8534, 57.3134, 37.0149, -8.1667, -109.2574, 3.0716, 74.9940, 0.4458, 0.6562, 0.4839, -0.3696, -0.0750, -0.0144, -0.0520, 1005.4000, 0.0000, 0.0000, 0.0000
2, 1.3999, 140, -0.9814, 0.2668, -0.1400, 11.5875, 3.3760, -20.4345, -45.2239, 32.5373, 22.6667, -57.7536, -76.3812, 46.5332, -0.7502, -0.1348, -0.6473, -0.0024, -0.0095, 0.0677, -0.0144, 1003.6100, 0.0000, 0.0000, 0.0000
1, 1.4900, 146, -0.0138, 0.9395, 0.3363, 3.0268, 48.9088, 15.3586, 57.4627, 38.6567, -8.0000, -109.2341, 3.0398, 74.4638, 0.4478, 0.6582, 0.4809, -0.3674, -0.0668, -0.0033, 0.0073, 1005.4000, 0.0000, 0.0000, 0.0000
1, 1.5000, 147, -0.0217, 0.9432, 0.3585, -0.2258, 46.8506, 13.1319, 57.7612, 36.8657, -8.3333, -109.2565, 3.0059, 73.9782, 0.4494, 0.6602, 0.4783, -0.3653, -0.0742, 0.0004, 0.0291, 1005.4000, 0.0000, 0.0000, 0.0000
1, 1.5100, 148, -0.0236, 0.9493, 0.3302, -0.7842, 44.4568, 10.8548, 56.2687, 37.0149, -8.0000, -109.2901, 2.9540, 73.5253, 0.4508, 0.6621, 0.4760, -0.3630, -0.0751, 0.0067, 0.0002, 1005.4000, 0.0000, 0.0000, 0.0000
2, 1.4099, 141, -0.9774, 0.2610, -0.1420, -0.4825, 2.8105, -15.7251, -40.8955, 31.0448, 22.6667, -57.2853, -76.4688, 46.0747, -0.7505, -0.1339, -0.6472, -0.0032, -0.0052, 0.0641, -0.0155, 1003.6100, 0.0000, 0.0000, 0.0000
2, 1.4199, 142, -0.9657, 0.2767, -0.1375, -14.3142, 3.8077, -7.7724, -43.4328, 31.3433, 22.6667, -57.0935, -76.4948, 45.7643, -0.7506, -0.1343, -0.6469, -0.0043, 0.0067, 0.0806, -0.0106, 1003.6100, 0.0000, 0.0000, 0.0000
1, 1.5200, 149, -0.0471, 0.9512, 0.3299, -0.4041, 37.8179, 7.7766, 57.3134, 38.2090, -7.8333, -109.3101, 2.8855, 73.1278, 0.4523, 0.6636, 0.4741, -0.3610, -0.0974, 0.0087, -0.0004, 1005.4000, 0.0000, 0.0000, 0.0000
2, 1.4299, 143, -0.9620, 0.2962, -0.1252, -24.5292, 3.4472, -1.0251, -43.4328, 31.0448, 23.0000, -57.1889, -76.4635, 45.6304, -0.7506, -0.1358, -0.6466, -0.0056, 0.0103, 0.0995, 0.0017, 1003.6100, 0.0000, 0.0000, 0.0000
2, 1.4399, 144, -0.9661, 0.3159, -0.1369, -34.7810, 3.0923, 3.8362, -45.2239, 32.5373, 22.8333, -57.5262, -76.3909, 45.6556, -0.7504, -0.1383, -0.6463, -0.0070, 0.0059, 0.1174, -0.0105, 1003.6100, 0.0000, 0.0000, 0.0000
1, 1.5300, 150, -0.0472, 0.9628, 0.3442, -0.8699, 35.4022, 7.6122, 57.1642, 37.1642, -8.1667, -109.3321, 2.8173, 72.7758, 0.4535, 0.6650, 0.4724, -0.3591, -0.0963, 0.0203, 0.0135, 1005.4000, 0.0000, 0.0000, 0.0000
1, 1.5400, 151, -0.0393, 0.9726, 0.3403, -0.8245, 33.3601, 6.0471, 54.3284, 39.1045, -7.8333, -109.3580, 2.7418, 72.4496, 0.4547, 0.6662, 0.4709, -0.3573, -0.0871, 0.0302, 0.0092, 1005.4000, 0.0000, 0.0000, 0.0000
1, 1.5500, 152, -0.0354, 0.9707, 0.3383, -1.0790, 30.7343, 5.7419, 58.9552, 37.9104, -7.1667, -109.3840, 2.6656, 72.1433, 0.4559, 0.6673, 0.4695, -0.3556, -0.0819, 0.0284, 0.0068, 1005.4000, 0.0000, 0.0000, 0.0000
1, 1.5601, 153, -0.0236, 0.9570, 0.3404, -1.7577, 25.5715, 3.3708, 57.9104, 38.6567, -7.0000, -109.4132, 2.5910, 71.8823, 0.4568, 0.6683, 0.4684, -0.3540, -0.0688, 0.0148, 0.0083, 1005.3900, 0.0000, 0.0000, 0.0000
2, 1.4500, 145, -0.9643, 0.3296, -0.1247, -39.2916, 2.0114, 9.8310, -43.7313, 29.8507, 23.0000, -58.0883, -76.2788, 45.8531, -0.7501, -0.1414, -0.6460, -0.0083, 0.0072, 0.1282, 0.0007, 1003.6100, 0.0000, 0.0000, 0.0000
2, 1.4600, 146, -0.9646, 0.3589, -0.1084, -39.4904, 1.0721, 13.8483, -43.7313, 31.7910, 23.3333, -58.7993, -76.1331, 46.1824, -0.7497, -0.1448, -0.6457, -0.0094, 0.0063, 0.1539, 0.0158, 1003.6100, 0.0000, 0.0000, 0.0000
1, 1.5701, 154, -0.0197, 0.9531, 0.3383, -1.8235, 20.7649, 1.2894, 57.3134, 38.2090, -7.6667, -109.4408, 2.5167, 71.6752, 0.4576, 0.6691, 0.4676, -0.3526, -0.0636, 0.0111, 0.0058, 1005.3900, 0.0000, 0.0000, 0.0000
1, 1.5801, 155, -0.0020, 0.9571, 0.3366, -1.6088, 15.9625, -1.0008, 56.1194, 38.3582, -7.1667, -109.4654, 2.4314, 71.5178, 0.4583, 0.6696, 0.4671, -0.3514, -0.0445, 0.0151, 0.0036, 1005.3900, 0.0000, 0.0000, 0.0000
1, 1.5901, 156, -0.0001, 0.9610, 0.3427, -2.6351, 13.8577, -4.0538, 56.8657, 38.8060, -7.0000, -109.4914, 2.3332, 71.3965, 0.4590, 0.6699, 0.4669, -0.3502, -0.0408, 0.0190, 0.0093, 1005.3900, 0.0000, 0.0000, 0.0000
2, 1.4700, 147, -0.9449, 0.3727, -0.1097, -39.2082, 0.9170, 17.8350, -41.3433, 30.7463, 23.1667, -59.5973, -75.9476, 46.6003, -0.7492, -0.1486, -0.6454, -0.0103, 0.0252, 0.1633, 0.0132, 1003.6100, 0.0000, 0.0000, 0.0000
2, 1.4800, 148, -0.9370, 0.3786, -0.1074, -37.2930, 0.0475, 21.2456, -44.7761, 31.4925, 23.8333, -60.4671, -75.7330, 47.1031, -0.7487, -0.1525, -0.6450, -0.0108, 0.0321, 0.1642, 0.0141, 1003.6100, 0.0000, 0.0000, 0.0000
1, 1.5999, 157, -0.0119, 0.9551, 0.3445, -3.5826, 11.2257, -4.2241, 58.9552, 38.2090, -7.0000, -109.5256, 2.2300, 71.3056, 0.4595, 0.6701, 0.4669, -0.3491, -0.0508, 0.0133, 0.0106, 1005.3900, 0.0000, 0.0000, 0.0000
1, 1.6099, 158, 0.0078, 0.9669, 0.3328, -3.6047, 7.6173, -5.4506, 54.6269, 38.8060, -7.1667, -109.5655, 2.1255, 71.2507, 0.4598, 0.6702, 0.4671, -0.3482, -0.0293, 0.0253, -0.0019, 1005.3900, 0.0000, 0.0000, 0.0000
2, 1.4900, 149, -0.9551, 0.4041, -0.1095, -33.1728, -2.1790, 23.9494, -43.7313, 31.0448, 23.3333, -61.3906, -75.5006, 47.6956, -0.7482, -0.1563, -0.6447, -0.0109, 0.0130, 0.1843, 0.0104, 1003.6100, 0.0000, 0.0000, 0.0000
1, 1.6199, 159, -0.0040, 0.9492, 0.3466, -5.9284, 4.6215, -5.7059, 57.7612, 37.7612, -6.6667, -109.6172, 2.0301, 71.2303, 0.4600, 0.6702, 0.4675, -0.3473, -0.0395, 0.0078, 0.0111, 1005.3900, 0.0000, 0.0000, 0.0000
1, 1.6299, 160, -0.0020, 0.9298, 0.3383, -4.0549, 2.2900, -5.5683, 56.1194, 39.2537, -6.8333, -109.6638, 1.9295, 71.2364, 0.4601, 0.6701, 0.4681, -0.3466, -0.0357, -0.0114, 0.0020, 1005.3900, 0.0000, 0.0000, 0.0000
2, 1.5000, 150, -0.9512, 0.4060, -0.1073, -28.3509, -3.1195, 25.6669, -43.8806, 32.2388, 23.6667, -62.3477, -75.2539, 48.3781, -0.7476, -0.1599, -0.6445, -0.0106, 0.0159, 0.1806, 0.0108, 1003.6100, 0.0000, 0.0000, 0.0000
1, 1.6399, 161, -0.0099, 0.9453, 0.3424, -4.7895, -0.0529, -6.0864, 57.7612, 37.9104, -6.8333, -109.7076, 1.8285, 71.2762, 0.4602, 0.6698, 0.4689, -0.3460, -0.0418, 0.0044, 0.0054, 1005.3900, 0.0000, 0.0000, 0.0000
1, 1.6499, 162, -0.0080, 0.9394, 0.3505, -3.7199, -2.8764, -6.9453, 60.0000, 37.1642, -6.8333, -109.7480, 1.7381, 71.3365, 0.4602, 0.6695, 0.4698, -0.3455, -0.0383, -0.0014, 0.0128, 1005.3900, 0.0000, 0.0000, 0.0000
1, 1.6599, 163, -0.0040, 0.9590, 0.3467, -2.1813, -4.8492, -7.3708, 54.0299, 39.2537, -7.0000, -109.7705, 1.6509, 71.4124, 0.4602, 0.6690, 0.4706, -0.3452, -0.0328, 0.0183, 0.0086, 1005.3900, 0.0000, 0.0000, 0.0000
2, 1.5100, 151, -0.9592, 0.4118, -0.0975, -20.5950, -3.3515, 27.5258, -46.2687, 31.9403, 24.0000, -63.2601, -74.9886, 49.0893, -0.7471, -0.1632, -0.6443, -0.0097, 0.0067, 0.1805, 0.0190, 1003.6100, 0.0000, 0.0000, 0.0000
2, 1.5198, 152, -0.9434, 0.4217, -0.1109, -13.1763, -4.3674, 29.2120, -42.5373, 31.1940, 24.1667, -64.1013, -74.7010, 49.8086, -0.7467, -0.1661, -0.6440, -0.0083, 0.0212, 0.1844, 0.0044, 1003.6100, 0.0000, 0.0000, 0.0000
2, 1.5298, 153, -0.9413, 0.4080, -0.1130, -3.8526, -5.3129, 30.2129, -43.4328, 31.7910, 24.0000, -64.8856, -74.3943, 50.5477, -0.7464, -0.1686, -0.6438, -0.0063, 0.0219, 0.1644, 0.0012, 1003.6100, 0.0000, 0.0000, 0.0000
2, 1.5398, 154, -0.9491, 0.4002, -0.1213, 3.8264, -5.0455, 32.0806, -43.7313, 33.8806, 24.3333, -65.5923, -74.0767, 51.2844, -0.7461, -0.1707, -0.6436, -0.0038, 0.0125, 0.1504, -0.0079, 1003.6100, 0.0000, 0.0000, 0.0000
1, 1.6699, 164, 0.0098, 0.9592, 0.3287, -1.0136, -7.4440, -9.6349, 58.5075, 37.1642, -7.0000, -109.7801, 1.5704, 71.5091, 0.4602, 0.6684, 0.4716, -0.3451, -0.0176, 0.0185, -0.0096, 1005.3900, 0.0000, 0.0000, 0.0000
2, 1.5498, 155, -0.9449, 0.3866, -0.1412, 10.3366, -6.3453, 33.7912, -42.6866, 32.8358, 24.3333, -66.2133, -73.7551, 52.0022, -0.7459, -0.1723, -0.6433, -0.0009, 0.0151, 0.1306, -0.0284, 1003.6100, 0.0000, 0.0000, 0.0000
2, 1.5598, 156, -0.9547, 0.3689, -0.1398, 18.0267, -6.4336, 35.3018, -42.5373, 33.8806, 23.6667, -66.7538, -73.4314, 52.7108, -0.7458, -0.1735, -0.6431, 0.0025, 0.0038, 0.1069, -0.0272, 1003.6100, 0.0000, 0.0000, 0.0000
1, 1.6799, 165, 0.0235, 0.9631, 0.3289, -0.8727, -8.7232, -9.4329, 56.7164, 37.9104, -7.1667, -109.7782, 1.5067, 71.6177, 0.4601, 0.6678, 0.4724, -0.3452, -0.0028, 0.0224, -0.0094, 1005.3900, 0.0000, 0.0000, 0.0000
1, 1.6899, 166, 0.0293, 0.9591, 0.3451, -0.9096, -10.0604, -10.5705, 56.8657, 38.2090, -7.0000, -109.7811, 1.4456, 71.7416, 0.4600, 0.6671, 0.4734, -0.3453, 0.0041, 0.0184, 0.0068, 1005.3900, 0.0000, 0.0000, 0.0000
2, 1.5698, 157, -0.9684, 0.3610, -0.1442, 22.7611, -6.7332, 37.5195, -43.2836, 32.2388, 23.8333, -67.2205, -73.1006, 53.4058, -0.7458, -0.1744, -0.6429, 0.0061, -0.0116, 0.0930, -0.0316, 1003.6100, 0.0000, 0.0000, 0.0000
1, 1.7000, 167, 0.0255, 0.9534, 0.3207, -1.3301, -10.4939, -10.1552, 55.3731, 38.9552, -7.1667, -109.7814, 1.3883, 71.8639, 0.4598, 0.6664, 0.4744, -0.3455, 0.0013, 0.0127, -0.0176, 1005.3900, 0.0000, 0.0000, 0.0000
2, 1.5798, 158, -0.9800, 0.3297, -0.1569, 24.2143, -5.7378, 37.8842, -41.3433, 34.0299, 23.6667, -67.6340, -72.7601, 54.0719, -0.7458, -0.1751, -0.6426, 0.0100, -0.0249, 0.0556, -0.0441, 1003.6100, 0.0000, 0.0000, 0.0000
2, 1.5898, 159, -0.9837, 0.3101, -0.1612, 24.0803, -4.6757, 40.6960, -41.6418, 33.8806, 23.6667, -68.0151, -72.4023, 54.7178, -0.7459, -0.1758, -0.6423, 0.0140, -0.0305, 0.0297, -0.0481, 1003.6100, 0.0000, 0.0000, 0.0000
1, 1.7100, 168, 0.0274, 0.9533, 0.3349, -1.8860, -10.8558, -9.8813, 54.6269, 38.2090, -7.5000, -109.7878, 1.3306, 71.9901, 0.4597, 0.6658, 0.4754, -0.3457, 0.0042, 0.0126, -0.0036, 1005.3900, 0.0000, 0.0000, 0.0000
1, 1.7200, 169, 0.0157, 0.9475, 0.3205, -2.2537, -10.8696, -8.8285, 56.7164, 37.0149, -7.0000, -109.8035, 1.2782, 72.1108, 0.4594, 0.6652, 0.4763, -0.3458, -0.0066, 0.0069, -0.0182, 1005.3900, 0.0000, 0.0000, 0.0000
2, 1.5999, 160, -0.9836, 0.2944, -0.1635, 22.5779, -3.8917, 41.7678, -44.0299, 34.7761, 23.1667, -68.3530, -72.0295, 55.2996, -0.7460, -0.1767, -0.6418, 0.0180, -0.0324, 0.0076, -0.0497, 1003.6100, 0.0000, 0.0000, 0.0000
2, 1.6099, 161, -0.9834, 0.2787, -0.1657, 17.9040, -2.4615, 43.2093, -41.4925, 35.2239, 23.0000, -68.6825, -71.6419, 55.8426, -0.7462, -0.1779, -0.6412, 0.0218, -0.0343, -0.0147, -0.0512, 1003.6100, 0.0000, 0.0000, 0.0000
2, 1.6199, 162, -0.9873, 0.2650, -0.1680, 12.2416, -1.3169, 45.2302, -40.4478, 35.2239, 23.0000, -69.0095, -71.2350, 56.3226, -0.7463, -0.1795, -0.6404, 0.0253, -0.0404, -0.0353, -0.0527, 1003.6100, 0.0000, 0.0000, 0.0000
1, 1.7300, 170, 0.0236, 0.9476, 0.3125, -2.4851, -11.8803, -7.4308, 53.4328, 39.5522, -7.0000, -109.8165, 1.2387, 72.2407, 0.4591, 0.6646, 0.4773, -0.3460, 0.0019, 0.0071, -0.0264, 1005.3900, 0.0000, 0.0000, 0.0000
1, 1.7400, 171, 0.0157, 0.9456, 0.3185, -2.4973, -12.3849, -6.7310, 57.1642, 39.4030, -7.1667, -109.8291, 1.2156, 72.3703, 0.4588, 0.6640, 0.4782, -0.3463, -0.0055, 0.0051, -0.0207, 1005.3900, 0.0000, 0.0000, 0.0000
1, 1.7500, 172, 0.0176, 0.9514, 0.3206, -3.1533, -13.4038, -4.8441, 57.3134, 36.8657, -7.3333, -109.8405, 1.2047, 72.5005, 0.4584, 0.6635, 0.4790, -0.3468, -0.0034, 0.0110, -0.0188, 1005.3900, 0.0000, 0.0000, 0.0000
1, 1.7600, 173, 0.0215, 0.9512, 0.3429, -3.4533, -13.7027, -3.6523, 57.6119, 38.0597, -7.1667, -109.8661, 1.2109, 72.6397, 0.4578, 0.6630, 0.4799, -0.3472, 0.0003, 0.0110, 0.0032, 1005.3900, 0.0000, 0.0000, 0.0000
2, 1.6299, 163, -0.9931, 0.2513, -0.1723, 6.6757, -0.3825, 45.9239, -39.5522, 34.6269, 23.0000, -69.3509, -70.8225, 56.7606, -0.7464, -0.1815, -0.6397, 0.0285, -0.0485, -0.0561, -0.0565, 1003.6100, 0.0000, 0.0000, 0.0000
2, 1.6399, 164, -0.9987, 0.2238, -0.1808, 0.4136, 0.8399, 46.1065, -39.2537, 36.2687, 22.8333, -69.6755, -70.4095, 57.1153, -0.7465, -0.1838, -0.6387, 0.0313, -0.0566, -0.0906, -0.0643, 1003.6100, 0.0000, 0.0000, 0.0000
2, 1.6499, 165, -1.0064, 0.2042, -0.1833, -8.5315, 4.2090, 45.6684, -39.8507, 36.2687, 23.1667, -70.0246, -69.9944, 57.4069, -0.7465, -0.1866, -0.6378, 0.0336, -0.0668, -0.1173, -0.0664, 1003.6100, 0.0000, 0.0000, 0.0000
2, 1.6599, 166, -1.0103, 0.1983, -0.1815, -17.3132, 5.4364, 45.5348, -38.5075, 35.5224, 23.0000, -70.3830, -69.5722, 57.6275, -0.7465, -0.1900, -0.6366, 0.0354, -0.0732, -0.1305, -0.0643, 1003.6100, 0.0000, 0.0000, 0.0000
2, 1.6699, 167, -1.0004, 0.1924, -0.1773, -25.8095, 8.4520, 43.7812, -40.8955, 37.9104, 22.6667, -70.7547, -69.1499, 57.7743, -0.7465, -0.1939, -0.6354, 0.0367, -0.0659, -0.1436, -0.0600, 1003.6100, 0.0000, 0.0000, 0.0000
1, 1.7700, 174, 0.0372, 0.9630, 0.3452, -1.6724, -12.2726, -3.4144, 54.1791, 38.8060, -7.3333, -109.8927, 1.2333, 72.7737, 0.4571, 0.6626, 0.4806, -0.3478, 0.0156, 0.0229, 0.0051, 1005.3900, 0.0000, 0.0000, 0.0000
1, 1.7800, 175, 0.0372, 0.9611, 0.3351, -1.2124, -11.2127, -2.6274, 53.8806, 39.7015, -7.5000, -109.8927, 1.2531, 72.8785, 0.4567, 0.6623, 0.4812, -0.3483, 0.0153, 0.0210, -0.0051, 1005.3900, 0.0000, 0.0000, 0.0000
2, 1.6799, 168, -0.9885, 0.1885, -0.1711, -33.6706, 10.2515, 42.7232, -38.0597, 36.5672, 23.1667, -71.1388, -68.7350, 57.8518, -0.7465, -0.1982, -0.6341, 0.0374, -0.0566, -0.1547, -0.0539, 1003.6100, 0.0000, 0.0000, 0.0000
2, 1.6899, 169, -0.9766, 0.1905, -0.1688, -41.9368, 11.9114, 40.8769, -40.2985, 38.3582, 23.6667, -71.5527, -68.3311, 57.8738, -0.7463, -0.2029, -0.6328, 0.0375, -0.0473, -0.1598, -0.0520, 1003.6100, 0.0000, 0.0000, 0.0000
2, 1.7000, 170, -0.9627, 0.1807, -0.1567, -48.6954, 12.8596, 37.6117, -40.7463, 39.4030, 23.5000, -71.9827, -67.9485, 57.8334, -0.7461, -0.2080, -0.6314, 0.0370, -0.0359, -0.1764, -0.0406, 1003.6100, 0.0000, 0.0000, 0.0000
1, 1.7900, 176, 0.0391, 0.9708, 0.3393, -1.4149, -8.8621, -3.4547, 54.7761, 39.2537, -7.6667, -109.8927, 1.2651, 72.9666, 0.4564, 0.6619, 0.4816, -0.3487, 0.0171, 0.0307, -0.0009, 1005.3900, 0.0000, 0.0000, 0.0000
1, 1.8000, 177, 0.0450, 0.9669, 0.3494, -0.9972, -5.8666, -4.4123, 55.5224, 36.4179, -7.3333, -109.9015, 1.2653, 73.0390, 0.4561, 0.6617, 0.4821, -0.3490, 0.0229, 0.0268, 0.0091, 1005.3900, 0.0000, 0.0000, 0.0000
2, 1.7100, 171, -0.9410, 0.1925, -0.1540, -55.0595, 14.0887, 35.6264, -38.3582, 37.7612, 23.5000, -72.4244, -67.5840, 57.7402, -0.7458, -0.2133, -0.6300, 0.0360, -0.0166, -0.1710, -0.0388, 1003.6100, 0.0000, 0.0000, 0.0000
2, 1.7200, 172, -0.9233, 0.1905, -0.1377, -58.8025, 15.1749, 32.2830, -39.8507, 38.9552, 23.1667, -72.8773, -67.2410, 57.6083, -0.7455, -0.2188, -0.6286, 0.0346, -0.0011, -0.1792, -0.0238, 1003.6100, 0.0000, 0.0000, 0.0000
1, 1.8101, 178, 0.0745, 0.9710, 0.3357, 1.4319, -0.6788, -3.2230, 57.9104, 38.2090, -7.5000, -109.8858, 1.2767, 73.0475, 0.4561, 0.6616, 0.4820, -0.3492, 0.0522, 0.0308, -0.0044, 1005.3900, 0.0000, 0.0000, 0.0000
1, 1.8201, 179, 0.0864, 0.9792, 0.2954, 3.7842, 2.1178, -4.2363, 57.3134, 38.5075, -7.0000, -109.8028, 1.2972, 72.9836, 0.4567, 0.6616, 0.4813, -0.3494, 0.0638, 0.0385, -0.0433, 1005.3900, 0.0000, 0.0000, 0.0000
2, 1.7300, 173, -0.9075, 0.1964, -0.1332, -59.1460, 14.6881, 28.2783, -42.5373, 39.4030, 24.0000, -73.3066, -66.9333, 57.4360, -0.7451, -0.2242, -0.6273, 0.0329, 0.0126, -0.1789, -0.0206, 1003.5900, 0.0000, 0.0000, 0.0000
2, 1.7400, 174, -0.9114, 0.1905, -0.1334, -58.2975, 13.9847, 24.4585, -38.0597, 38.2090, 24.0000, -73.7150, -66.6687, 57.2448, -0.7447, -0.2293, -0.6260, 0.0309, 0.0068, -0.1897, -0.0223, 1003.5900, 0.0000, 0.0000, 0.0000
1, 1.8301, 180, 0.0687, 0.9849, 0.3074, 0.7253, 4.5061, -3.8202, 56.5672, 37.6119, -7.3333, -109.7338, 1.3060, 72.8907, 0.4574, 0.6617, 0.4805, -0.3493, 0.0459, 0.0438, -0.0302, 1005.3900, 0.0000, 0.0000, 0.0000
1, 1.8401, 181, 0.0569, 0.9712, 0.3071, -1.8563, 6.8236, -3.1191, 52.0896, 40.0000, -7.3333, -109.7063, 1.2906, 72.7958, 0.4579, 0.6620, 0.4800, -0.3490, 0.0344, 0.0300, -0.0300, 1005.3900, 0.0000, 0.0000, 0.0000
1, 1.8499, 182, 0.0275, 0.9809, 0.2987, -2.3813, 7.7959, -1.4260, 55.0746, 37.9104, -7.1667, -109.6947, 1.2591, 72.7036, 0.4584, 0.6622, 0.4795, -0.3485, 0.0056, 0.0397, -0.0382, 1005.3900, 0.0000, 0.0000, 0.0000
2, 1.7500, 175, -0.9452, 0.1962, -0.1223, -56.1829, 12.7792, 20.8200, -37.3134, 38.0597, 24.5000, -74.1145, -66.4447, 57.0643, -0.7442, -0.2340, -0.6249, 0.0288, -0.0285, -0.1881, -0.0129, 1003.5900, 0.0000, 0.0000, 0.0000
2, 1.7600, 176, -0.9551, 0.2021, -0.1264, -53.8420, 12.2913, 15.7425, -38.3582, 39.5522, 24.6667, -74.4723, -66.2753, 56.8673, -0.7437, -0.2383, -0.6240, 0.0265, -0.0396, -0.1855, -0.0187, 1003.5900, 0.0000, 0.0000, 0.0000
2, 1.7698, 177, -0.9790, 0.2138, -0.1189, -52.2074, 12.7332, 10.2386, -38.6567, 38.5075, 24.8333, -74.7604, -66.1633, 56.6233, -0.7433, -0.2421, -0.6231, 0.0240, -0.0643, -0.1761, -0.0127, 1003.5900, 0.0000, 0.0000, 0.0000
2, 1.7798, 178, -0.9927, 0.1941, -0.1056, -49.2531, 13.5999, 5.1499, -38.8060, 38.0597, 24.8333, -74.9912, -66.1031, 56.3442, -0.7430, -0.2455, -0.6223, 0.0213, -0.0785, -0.1972, -0.0007, 1003.5900, 0.0000, 0.0000, 0.0000
2, 1.7898, 179, -0.9828, 0.1902, -0.1154, -46.3865, 16.4661, -0.4530, -40.1493, 39.7015, 24.8333, -75.1185, -66.1007, 55.9921, -0.7428, -0.2482, -0.6216, 0.0184, -0.0685, -0.2013, -0.0113, 1003.5900, 0.0000, 0.0000, 0.0000
1, 1.8599, 183, 0.0197, 0.9672, 0.3025, -0.7959, 4.6731, -0.5229, 54.4776, 37.1642, -7.1667, -109.6563, 1.2366, 72.6158, 0.4589, 0.6624, 0.4790, -0.3482, -0.0019, 0.0257, -0.0338, 1005.3900, 0.0000, 0.0000, 0.0000
1, 1.8699, 184, 0.0255, 0.9827, 0.3230, 0.8022, 4.0490, -0.8665, 57.0149, 37.3134, -7.5000, -109.5879, 1.2183, 72.5469, 0.4596, 0.6623, 0.4785, -0.3481, 0.0042, 0.0408, -0.0122, 1005.3900, 0.0000, 0.0000, 0.0000
2, 1.7998, 180, -0.9846, 0.1745, -0.1097, -43.0108, 14.4122, -7.3389, -37.4627, 37.0149, 25.0000, -75.1783, -66.1628, 55.5978, -0.7426, -0.2504, -0.6210, 0.0151, -0.0699, -0.2162, -0.0063, 1003.5900, 0.0000, 0.0000, 0.0000
1, 1.8799, 185, 0.0336, 0.9950, 0.2625, 0.6182, 8.0124, 0.2203, 56.1194, 38.3582, -7.6667, -109.5182, 1.2181, 72.4399, 0.4604, 0.6625, 0.4776, -0.3479, 0.0123, 0.0526, -0.0716, 1005.3900, 0.0000, 0.0000, 0.0000
2, 1.8098, 181, -0.9784, 0.1471, -0.1179, -38.7508, 14.4975, -14.2756, -40.1493, 38.9552, 25.5000, -75.1534, -66.2909, 55.1584, -0.7425, -0.2520, -0.6205, 0.0117, -0.0628, -0.2416, -0.0149, 1003.5900, 0.0000, 0.0000, 0.0000
1, 1.8899, 186, 0.0297, 0.9969, 0.2645, -3.4714, 8.4017, 0.9633, 58.0597, 37.3134, -7.5000, -109.4621, 1.1979, 72.3065, 0.4612, 0.6628, 0.4768, -0.3475, 0.0088, 0.0542, -0.0686, 1005.3900, 0.0000, 0.0000, 0.0000
2, 1.8198, 182, -0.9898, 0.1020, -0.1308, -33.8237, 13.0146, -22.0592, -38.5075, 37.4627, 25.5000, -75.0418, -66.5075, 54.6799, -0.7426, -0.2527, -0.6202, 0.0079, -0.0727, -0.2831, -0.0279, 1003.5900, 0.0000, 0.0000, 0.0000
2, 1.8298, 183, -1.0052, 0.0549, -0.1398, -29.0969, 12.2488, -30.9508, -37.7612, 36.2687, 25.1667, -74.8441, -66.8076, 54.1611, -0.7426, -0.2526, -0.6202, 0.0039, -0.0860, -0.3252, -0.0369, 1003.5900, 0.0000, 0.0000, 0.0000
1, 1.8999, 187, 0.0372, 1.0139, 0.3336, -6.3891, 6.0929, 2.4685, 56.7164, 37.3134, -7.6667, -109.4909, 1.1992, 72.2150, 0.4613, 0.6633, 0.4763, -0.3470, 0.0163, 0.0714, 0.0000, 1005.3900, 0.0000, 0.0000, 0.0000
2, 1.8398, 184, -1.0027, 0.0060, -0.1544, -24.6012, 13.2676, -40.0188, -38.6567, 37.7612, 25.6667, -74.5101, -67.1982, 53.5419, -0.7428, -0.2518, -0.6204, -0.0005, -0.0808, -0.3675, -0.0509, 1003.5900, 0.0000, 0.0000, 0.0000
2, 1.8499, 185, -1.0084, -0.0136, -0.1568, -22.6057, 13.8657, -50.1801, -38.8060, 36.8657, 25.6667, -74.0407, -67.6709, 52.8149, -0.7431, -0.2502, -0.6206, -0.0053, -0.0834, -0.3789, -0.0524, 1003.5900, 0.0000, 0.0000, 0.0000
1, 1.9099, 188, 0.0412, 1.0158, 0.3317, -7.3438, 13.1069, 3.2922, 54.9254, 39.1045, -6.8333, -109.5530, 1.1995, 72.0935, 0.4613, 0.6640, 0.4758, -0.3463, 0.0202, 0.0737, -0.0030, 1005.3900, 0.0000, 0.0000, 0.0000
1, 1.9199, 189, 0.0275, 1.0043, 0.3091, -9.9163, 16.2123, 3.3662, 54.4776, 37.7612, -6.8333, -109.6295, 1.1832, 71.9272, 0.4614, 0.6650, 0.4751, -0.3452, 0.0069, 0.0626, -0.0268, 1005.3900, 0.0000, 0.0000, 0.0000
2, 1.8599, 186, -1.0006, -0.0098, -0.1447, -22.1477, 16.4575, -58.1950, -37.7612, 35.8209, 25.8333, -73.4444, -68.2161, 51.9642, -0.7435, -0.2481, -0.6209, -0.0107, -0.0720, -0.3655, -0.0389, 1003.5900, 0.0000, 0.0000, 0.0000
2, 1.8699, 187, -1.0205, 0.0060, -0.1628, -25.6814, 16.5540, -64.6942, -39.4030, 35.8209, 25.5000, -72.7604, -68.8181, 50.9949, -0.7438, -0.2458, -0.6213, -0.0166, -0.0880, -0.3391, -0.0557, 1003.5900, 0.0000, 0.0000, 0.0000
2, 1.8799, 188, -1.0207, 0.0275, -0.1506, -26.8750, 17.7118, -69.4633, -40.5970, 34.0299, 25.5000, -72.0041, -69.4505, 49.9203, -0.7441, -0.2435, -0.6217, -0.0230, -0.0843, -0.3064, -0.0421, 1003.5900, 0.0000, 0.0000, 0.0000
1, 1.9299, 190, 0.0176, 0.9885, 0.3291, -9.9902, 14.7140, 3.9869, 53.4328, 38.3582, -6.8333, -109.7284, 1.1675, 71.7632, 0.4614, 0.6660, 0.4745, -0.3441, -0.0028, 0.0474, -0.0084, 1005.3900, 0.0000, 0.0000, 0.0000
2, 1.8899, 189, -1.0129, 0.0293, -0.1245, -25.2408, 18.0107, -74.8310, -41.4925, 33.4328, 26.0000, -71.1362, -70.1216, 48.7430, -0.7444, -0.2409, -0.6221, -0.0296, -0.0725, -0.2924, -0.0146, 1003.5900, 0.0000, 0.0000, 0.0000
2, 1.8999, 190, -1.0145, -0.0099, -0.1152, -22.5539, 17.6644, -79.7508, -41.4925, 33.8806, 26.1667, -70.1264, -70.8396, 47.4493, -0.7446, -0.2377, -0.6227, -0.0364, -0.0699, -0.3186, -0.0037, 1003.5900, 0.0000, 0.0000, 0.0000
1, 1.9399, 191, 0.0038, 0.9668, 0.3509, -7.3453, 17.5210, 2.2018, 56.4179, 38.0597, -6.6667, -109.8180, 1.1316, 71.6026, 0.4615, 0.6669, 0.4740, -0.3428, -0.0159, 0.0262, 0.0120, 1005.3900, 0.0000, 0.0000, 0.0000
2, 1.9099, 191, -1.0218, -0.0707, -0.1362, -19.8216, 17.3138, -83.2729, -41.7910, 33.1343, 26.1667, -68.9463, -71.5884, 46.0179, -0.7449, -0.2341, -0.6233, -0.0433, -0.0730, -0.3654, -0.0227, 1003.5900, 0.0000, 0.0000, 0.0000
2, 1.9199, 192, -1.0294, -0.1041, -0.1270, -23.4588, 16.9757, -87.5533, -40.2985, 32.6866, 25.6667, -67.6442, -72.3664, 44.4498, -0.7450, -0.2304, -0.6240, -0.0506, -0.0764, -0.3842, -0.0117, 1003.5900, 0.0000, 0.0000, 0.0000
1, 1.9500, 192, 0.0038, 0.9492, 0.3487, -4.6469, 20.8903, 0.9850, 58.2090, 36.7164, -6.5000, -109.8783, 1.0730, 71.4212, 0.4619, 0.6677, 0.4734, -0.3415, -0.0149, 0.0089, 0.0088, 1005.3900, 0.0000, 0.0000, 0.0000
1, 1.9600, 193, -0.0079, 0.9356, 0.3343, -4.2982, 23.1020, 0.2316, 56.1194, 38.3582, -6.8333, -109.9231, 0.9906, 71.2174, 0.4626, 0.6685, 0.4727, -0.3400, -0.0252, -0.0044, -0.0064, 1005.3900, 0.0000, 0.0000, 0.0000
1, 1.9700, 194, -0.0236, 0.9356, 0.3320, -4.6339, 21.2529, 0.2840, 57.0149, 38.8060, -6.6667, -109.9638, 0.9030, 71.0162, 0.4634, 0.6693, 0.4720, -0.3385, -0.0394, -0.0042, -0.0093, 1005.3900, 0.0000, 0.0000, 0.0000
1, 1.9800, 195, -0.0235, 0.9260, 0.3117, -1.6026, 15.7889, 1.9546, 54.7761, 37.7612, -6.3333, -109.9888, 0.8368, 70.8520, 0.4640, 0.6699, 0.4714, -0.3374, -0.0381, -0.0136, -0.0301, 1005.3900, 0.0000, 0.0000, 0.0000
1, 1.9900, 196, -0.0059, 0.9650, 0.3224, 1.6595, 10.8023, 5.6022, 55.0746, 39.5522, -6.5000, -109.9728, 0.8209, 70.7255, 0.4645, 0.6703, 0.4706, -0.3368, -0.0202, 0.0253, -0.0191, 1005.3900, 0.0000, 0.0000, 0.0000
2, 1.9299, 193, -1.0293, -0.1238, -0.1074, -28.6706, 15.4311, -93.1161, -43.2836, 32.0896, 26.1667, -66.2385, -73.1776, 42.7359, -0.7449, -0.2267, -0.6248, -0.0583, -0.0721, -0.3887, 0.0092, 1003.5900, 0.0000, 0.0000, 0.0000
2, 1.9399, 194, -1.0610, -0.1258, -0.1162, -34.9969, 14.4617, -99.5498, -41.7910, 30.8955, 26.3333, -64.6790, -74.0390, 40.8078, -0.7446, -0.2230, -0.6257, -0.0667, -0.0995, -0.3744, 0.0014, 1003.5900, 0.0000, 0.0000, 0.0000
1, 2.0000, 197, -0.0058, 0.9848, 0.2963, -2.0692, 12.3415, 5.3017, 58.2090, 37.3134, -6.0000, -109.9492, 0.8227, 70.5900, 0.4650, 0.6707, 0.4698, -0.3364, -0.0201, 0.0449, -0.0448, 1005.3900, 0.0000, 0.0000, 0.0000
1, 2.0100, 198, -0.0059, 0.9885, 0.3227, -8.0486, 12.0265, 4.2630, 55.2239, 38.2090, -6.1667, -110.0002, 0.8182, 70.4597, 0.4651, 0.6715, 0.4692, -0.3356, -0.0202, 0.0489, -0.0193, 1005.3900, 0.0000, 0.0000, 0.0000
2, 1.9500, 195, -1.1007, -0.1161, -0.1111, -41.7358, 14.6981, -103.3897, -41.4925, 29.8507, 26.3333, -62.9261, -74.9246, 38.6106, -0.7439, -0.2195, -0.6266, -0.0758, -0.1351, -0.3477, 0.0073, 1003.5900, 0.0000, 0.0000, 0.0000
1, 2.0200, 199, -0.0550, 0.9842, 0.3544, -9.0746, 10.2436, 4.3101, 56.5672, 38.6567, -6.3333, -110.0847, 0.7988, 70.3550, 0.4650, 0.6722, 0.4689, -0.3348, -0.0690, 0.0451, 0.0110, 1005.3900, 0.0000, 0.0000, 0.0000
2, 1.9600, 196, -1.1384, -0.1123, -0.1041, -50.7010, 14.0830, -107.6235, -45.2239, 29.5522, 25.8333, -60.9684, -75.8194, 36.1228, -0.7431, -0.2164, -0.6275, -0.0855, -0.1689, -0.3265, 0.0148, 1003.5900, 0.0000, 0.0000, 0.0000
1, 2.0300, 200, -0.0570, 0.9763, 0.3543, -9.5319, 8.1882, 3.6559, 54.4776, 39.7015, -6.1667, -110.1824, 0.7752, 70.2775, 0.4648, 0.6728, 0.4688, -0.3339, -0.0705, 0.0378, 0.0093, 1005.3900, 0.0000, 0.0000, 0.0000
2, 1.9700, 197, -1.1566, -0.0791, -0.0882, -58.0674, 16.6809, -113.4574, -47.0149, 28.0597, 26.3333, -58.6356, -76.7235, 33.1831, -0.7420, -0.2134, -0.6282, -0.0960, -0.1833, -0.2752, 0.0314, 1003.5900, 0.0000, 0.0000, 0.0000
1, 2.0400, 201, -0.0551, 0.9684, 0.3725, -7.9353, 8.3466, 3.1779, 56.8657, 37.9104, -5.5000, -110.2718, 0.7494, 70.2180, 0.4645, 0.6734, 0.4688, -0.3331, -0.0682, 0.0304, 0.0260, 1005.3900, 0.0000, 0.0000, 0.0000
1, 2.0500, 202, -0.0334, 0.9530, 0.3463, -6.1363, 8.8945, -0.3928, 55.2239, 38.2090, -6.1667, -110.3431, 0.6938, 70.1699, 0.4645, 0.6737, 0.4690, -0.3323, -0.0456, 0.0155, -0.0013, 1005.3900, 0.0000, 0.0000, 0.0000
2, 1.9800, 198, -1.1648, -0.0517, -0.0820, -64.3655, 19.1964, -116.1768, -45.0746, 26.7164, 27.0000, -55.7952, -77.6124, 29.6706, -0.7408, -0.2107, -0.6288, -0.1071, -0.1881, -0.2291, 0.0386, 1003.5900, 0.0000, 0.0000, 0.0000
1, 2.0601, 203, -0.0197, 0.9434, 0.3362, -3.8881, 10.5680, -2.6833, 56.2687, 38.0597, -5.8333, -110.3868, 0.6242, 70.0993, 0.4647, 0.6740, 0.4690, -0.3315, -0.0306, 0.0061, -0.0121, 1005.4300, 0.0000, 0.0000, 0.0000
1, 2.0701, 204, 0.0117, 0.9512, 0.3448, -2.9467, 13.9803, -2.4363, 53.8806, 39.4030, -5.6667, -110.4123, 0.5497, 69.9841, 0.4652, 0.6743, 0.4687, -0.3305, 0.0021, 0.0140, -0.0040, 1005.4300, 0.0000, 0.0000, 0.0000
1, 2.0801, 205, 0.0058, 0.9806, 0.3308, -6.0552, 13.3159, -2.1160, 54.6269, 36.8657, -5.8333, -110.4437, 0.4750, 69.8501, 0.4657, 0.6748, 0.4683, -0.3293, -0.0024, 0.0436, -0.0184, 1005.4300, 0.0000, 0.0000, 0.0000
1, 2.0901, 206, -0.0197, 0.9805, 0.3406, -10.1124, 11.0157, -2.1691, 52.6866, 39.5522, -5.6667, -110.5235, 0.4071, 69.7451, 0.4658, 0.6753, 0.4682, -0.3282, -0.0268, 0.0440, -0.0099, 1005.4300, 0.0000, 0.0000, 0.0000
2, 1.9900, 199, -1.1217, -0.0065, -0.0703, -68.1125, 22.2843, -120.7984, -45.2239, 26.5672, 27.1667, -52.3309, -78.4664, 25.4667, -0.7396, -0.2080, -0.6290, -0.1188, -0.1419, -0.1648, 0.0519, 1003.5900, 0.0000, 0.0000, 0.0000
1, 2.0999, 207, -0.0315, 0.9746, 0.3425, -12.2556, 10.7138, -1.9081, 53.5821, 38.8060, -5.6667, -110.6315, 0.3338, 69.6594, 0.4657, 0.6759, 0.4683, -0.3270, -0.0373, 0.0387, -0.0099, 1005.4300, 0.0000, 0.0000, 0.0000
2, 2.0000, 200, -1.0527, 0.0250, -0.0660, -67.0216, 24.0769, -124.3386, -47.4627, 22.9851, 27.0000, -48.0789, -79.2739, 20.4685, -0.7383, -0.2052, -0.6291, -0.1308, -0.0702, -0.1135, 0.0583, 1003.5900, 0.0000, 0.0000, 0.0000
2, 2.0100, 201, -1.0270, 0.0250, -0.0594, -64.7793, 22.1540, -126.7326, -45.0746, 23.1343, 27.0000, -43.0075, -80.0223, 14.6651, -0.7369, -0.2021, -0.6291, -0.1428, -0.0421, -0.0931, 0.0673, 1003.5900, 0.0000, 0.0000, 0.0000
1, 2.1099, 208, -0.0511, 0.9705, 0.3523, -11.9813, 8.9347, -1.3571, 54.1791, 38.9552, -5.1667, -110.7424, 0.2619, 69.5936, 0.4656, 0.6764, 0.4685, -0.3258, -0.0557, 0.0353, -0.0019, 1005.4300, 0.0000, 0.0000, 0.0000
2, 2.0198, 202, -0.9894, 0.0330, -0.0564, -57.3516, 21.5807, -129.8515, -49.4030, 22.6866, 27.1667, -36.9737, -80.6919, 7.9537, -0.7353, -0.1985, -0.6293, -0.1547, -0.0026, -0.0643, 0.0729, 1003.5900, 0.0000, 0.0000, 0.0000
1, 2.1199, 209, -0.0727, 0.9469, 0.3639, -12.5340, 4.6581, -0.1999, 52.6866, 38.8060, -5.5000, -110.8661, 0.1945, 69.5700, 0.4652, 0.6769, 0.4690, -0.3248, -0.0761, 0.0125, 0.0078, 1005.4300, 0.0000, 0.0000, 0.0000
2, 2.0298, 203, -0.9856, 0.0566, -0.0678, -49.2481, 18.7254, -133.7643, -45.9701, 19.8507, 27.0000, -29.8752, -81.2612, 0.2509, -0.7336, -0.1942, -0.6296, -0.1662, 0.0028, -0.0191, 0.0639, 1003.5900, 0.0000, 0.0000, 0.0000
1, 2.1299, 210, -0.0610, 0.9390, 0.3802, -10.9142, 1.6239, -0.9150, 55.8209, 36.5672, -5.0000, -110.9889, 0.1299, 69.5963, 0.4646, 0.6771, 0.4698, -0.3241, -0.0633, 0.0054, 0.0220, 1005.4300, 0.0000, 0.0000, 0.0000
1, 2.1399, 211, -0.0611, 0.9096, 0.3961, -8.2119, -0.3454, -0.9082, 52.9851, 39.4030, -5.0000, -111.1113, 0.0603, 69.6734, 0.4640, 0.6771, 0.4708, -0.3235, -0.0622, -0.0233, 0.0359, 1005.4300, 0.0000, 0.0000, 0.0000
1, 2.1499, 212, -0.0571, 0.9060, 0.3597, -3.7588, -4.1409, -1.6056, 57.4627, 38.5075, -5.3333, -111.1874, -0.0093, 69.7748, 0.4635, 0.6767, 0.4719, -0.3231, -0.0569, -0.0264, -0.0018, 1005.4300, 0.0000, 0.0000, 0.0000
2, 2.0398, 204, -1.0055, 0.0703, -0.0781, -41.3390, 16.5764, -135.1556, -50.1493, 20.4478, 27.8333, -21.7604, -81.6997, -8.3859, -0.7318, -0.1894, -0.6302, -0.1774, -0.0160, 0.0168, 0.0560, 1003.5900, 0.0000, 0.0000, 0.0000
2, 2.0498, 205, -1.0353, 0.0781, -0.0926, -30.9781, 15.4241, -137.1169, -48.5075, 16.7164, 27.8333, -12.7367, -81.9587, -17.8400, -0.7299, -0.1838, -0.6309, -0.1882, -0.0451, 0.0473, 0.0438, 1003.5900, 0.0000, 0.0000, 0.0000
2, 2.0598, 206, -1.0808, 0.0820, -0.1076, -24.5457, 15.4221, -139.9153, -51.0448, 17.7612, 27.6667, -3.0968, -82.0051, -27.8377, -0.7280, -0.1776, -0.6317, -0.1987, -0.0905, 0.0745, 0.0313, 1003.5900, 0.0000, 0.0000, 0.0000
1, 2.1599, 213, -0.0550, 0.9081, 0.3435, -2.2573, -7.9494, -3.0320, 56.1194, 37.7612, -5.3333, -111.2132, -0.0606, 69.8853, 0.4633, 0.6762, 0.4729, -0.3232, -0.0540, -0.0241, -0.0183, 1005.4300, 0.0000, 0.0000, 0.0000
1, 2.1699, 214, -0.0550, 0.9121, 0.3314, -2.6194, -7.9973, -5.4290, 54.4776, 39.2537, -5.0000, -111.2249, -0.1129, 69.9960, 0.4631, 0.6757, 0.4738, -0.3233, -0.0530, -0.0200, -0.0306, 1005.4300, 0.0000, 0.0000, 0.0000
2, 2.0698, 207, -1.1383, 0.0858, -0.1071, -20.1881, 12.4966, -142.1739, -49.4030, 15.0746, 28.1667, 6.5768, -81.8356, -37.8281, -0.7259, -0.1710, -0.6326, -0.2090, -0.1485, 0.1021, 0.0340, 1003.5900, 0.0000, 0.0000, 0.0000
2, 2.0798, 208, -1.1780, 0.0935, -0.1060, -19.5009, 13.1486, -145.8283, -48.2090, 12.2388, 28.0000, 15.7953, -81.4336, -47.3398, -0.7236, -0.1640, -0.6336, -0.2193, -0.1892, 0.1341, 0.0374, 1003.5900, 0.0000, 0.0000, 0.0000
2, 2.0898, 209, -1.1999, 0.1033, -0.1123, -19.6552, 14.7196, -146.2160, -49.8507, 12.5373, 27.8333, 24.0212, -80.8097, -55.8617, -0.7212, -0.1570, -0.6344, -0.2297, -0.2127, 0.1683, 0.0335, 1003.5900, 0.0000, 0.0000, 0.0000
2, 2.0999, 210, -1.2274, 0.0738, -0.1016, -26.5273, 15.2316, -146.7045, -50.1493, 9.2537, 28.1667, 31.0258, -80.0087, -63.2042, -0.7187, -0.1501, -0.6349, -0.2403, -0.2425, 0.1632, 0.0471, 1003.5900, 0.0000, 0.0000, 0.0000
1, 2.1799, 215, -0.0334, 0.9297, 0.3379, -2.1013, -7.7626, -7.1123, 52.9851, 38.6567, -5.0000, -111.2365, -0.1722, 70.1048, 0.4630, 0.6751, 0.4747, -0.3233, -0.0304, -0.0024, -0.0243, 1005.4300, 0.0000, 0.0000, 0.0000
1, 2.1899, 216, -0.0275, 0.9512, 0.3301, -2.9004, -9.3204, -8.0470, 54.3284, 40.2985, -5.1667, -111.2462, -0.2287, 70.2063, 0.4629, 0.6746, 0.4755, -0.3233, -0.0235, 0.0192, -0.0323, 1005.4300, 0.0000, 0.0000, 0.0000
1, 2.2000, 217, -0.0217, 0.9726, 0.3466, -5.3634, -13.2779, -4.7914, 57.4627, 37.7612, -5.1667, -111.2783, -0.2501, 70.3325, 0.4624, 0.6741, 0.4765, -0.3236, -0.0173, 0.0408, -0.0163, 1005.4300, 0.0000, 0.0000, 0.0000
1, 2.2100, 218, -0.0119, 0.9764, 0.3610, -5.4925, -12.9895, -5.2829, 51.9403, 39.2537, -5.1667, -111.3252, -0.2525, 70.4676, 0.4618, 0.6737, 0.4774, -0.3239, -0.0075, 0.0449, -0.0027, 1005.4300, 0.0000, 0.0000, 0.0000
1, 2.2200, 219, -0.0315, 0.9666, 0.3626, -3.2202, -10.9110, -5.5987, 56.4179, 37.3134, -5.0000, -111.3613, -0.2639, 70.5915, 0.4613, 0.6733, 0.4783, -0.3242, -0.0269, 0.0353, -0.0016, 1005.4300, 0.0000, 0.0000, 0.0000
1, 2.2300, 220, -0.0590, 0.9509, 0.3581, -2.9281, -7.6966, -7.1891, 55.2239, 38.8060, -5.3333, -111.3858, -0.3170, 70.7109, 0.4610, 0.6728, 0.4792, -0.3243, -0.0535, 0.0198, -0.0066, 1005.4300, 0.0000, 0.0000, 0.0000
2, 2.1099, 211, -1.2074, 0.0561, -0.0894, -36.5297, 17.9579, -146.3653, -51.6418, 8.2090, 27.8333, 36.7495, -79.0595, -69.3540, -0.7161, -0.1437, -0.6351, -0.2515, -0.2256, 0.1696, 0.0626, 1003.5900, 0.0000, 0.0000, 0.0000
2, 2.1199, 212, -1.1421, 0.0523, -0.0799, -46.2383, 20.6741, -142.8031, -50.0000, 8.2090, 28.1667, 41.2019, -78.0069, -74.3215, -0.7135, -0.1380, -0.6347, -0.2629, -0.1639, 0.1892, 0.0765, 1003.5900, 0.0000, 0.0000, 0.0000
1, 2.2400, 221, -0.0825, 0.9353, 0.3495, -2.5926, -6.3460, -7.1049, 53.5821, 38.8060, -5.3333, -111.4060, -0.4018, 70.8271, 0.4609, 0.6721, 0.4803, -0.3242, -0.0755, 0.0043, -0.0154, 1005.4300, 0.0000, 0.0000, 0.0000
1, 2.2500, 222, -0.0668, 0.9256, 0.3435, -1.1384, -6.4757, -7.3048, 54.3284, 38.2090, -4.8333, -111.4148, -0.4969, 70.9407, 0.4609, 0.6714, 0.4814, -0.3240, -0.0581, -0.0053, -0.0216, 1005.4300, 0.0000, 0.0000, 0.0000
2, 2.1299, 213, -1.0512, 0.0760, -0.0692, -57.4427, 21.1720, -136.2866, -49.7015, 6.4179, 27.8333, 44.5709, -76.9232, -78.3232, -0.7107, -0.1332, -0.6338, -0.2747, -0.0771, 0.2348, 0.0920, 1003.5900, 0.0000, 0.0000, 0.0000
1, 2.2600, 223, -0.0433, 0.9100, 0.3558, -1.3367, -7.1848, -7.5235, 53.7313, 39.8507, -5.3333, -111.4229, -0.5656, 71.0529, 0.4609, 0.6708, 0.4824, -0.3240, -0.0334, -0.0209, -0.0094, 1005.4300, 0.0000, 0.0000, 0.0000
2, 2.1399, 214, -0.9720, 0.0880, -0.0729, -63.4211, 19.1647, -129.8877, -51.3433, 5.3731, 28.0000, 47.1363, -75.8535, -81.6020, -0.7079, -0.1294, -0.6326, -0.2864, -0.0024, 0.2672, 0.0933, 1003.5900, 0.0000, 0.0000, 0.0000
1, 2.2700, 224, 0.0038, 0.8868, 0.3420, -0.4218, -5.2100, -5.6693, 57.4627, 37.1642, -5.1667, -111.4277, -0.6057, 71.1296, 0.4608, 0.6704, 0.4830, -0.3241, 0.0144, -0.0441, -0.0233, 1005.4300, 0.0000, 0.0000, 0.0000
1, 2.2800, 225, 0.0274, 0.8792, 0.3200, -0.3041, -2.1231, -8.7406, 52.3881, 39.8507, -5.5000, -111.4132, -0.6438, 71.1528, 0.4610, 0.6701, 0.4832, -0.3240, 0.0387, -0.0517, -0.0451, 1005.4300, 0.0000, 0.0000, 0.0000
2, 2.1499, 215, -0.9129, 0.1196, -0.0789, -67.2334, 15.9367, -122.1001, -48.3582, 4.0299, 27.6667, 49.1393, -74.8224, -84.3631, -0.7049, -0.1263, -0.6312, -0.2979, 0.0522, 0.3176, 0.0924, 1003.5900, 0.0000, 0.0000, 0.0000
2, 2.1599, 216, -0.8990, 0.1276, -0.1003, -64.7567, 10.0488, -110.9688, -48.2090, 2.6866, 27.6667, 50.7534, -73.8859, -86.7411, -0.7018, -0.1239, -0.6300, -0.3086, 0.0617, 0.3425, 0.0753, 1003.5900, 0.0000, 0.0000, 0.0000
1, 2.2900, 226, 0.0451, 0.8754, 0.3120, -0.5314, -1.4939, -7.9630, 53.1343, 39.4030, -5.1667, -111.3929, -0.6740, 71.1402, 0.4612, 0.6700, 0.4832, -0.3239, 0.0569, -0.0556, -0.0527, 1005.4300, 0.0000, 0.0000, 0.0000
2, 2.1699, 217, -0.9306, 0.1237, -0.1309, -58.6136, 3.3000, -100.2610, -49.2537, 0.8955, 28.3333, 52.1234, -73.0695, -88.8423, -0.6986, -0.1222, -0.6290, -0.3184, 0.0261, 0.3536, 0.0479, 1003.5900, 0.0000, 0.0000, 0.0000
2, 2.1799, 218, -0.9938, 0.1119, -0.1466, -52.9398, -1.5254, -88.2706, -50.8955, 2.0896, 28.0000, 53.3069, -72.3659, -90.6945, -0.6954, -0.1209, -0.6284, -0.3270, -0.0408, 0.3548, 0.0344, 1003.5900, 0.0000, 0.0000, 0.0000
1, 2.3000, 227, 0.0254, 0.8830, 0.3382, -4.2490, 2.0446, -9.3031, 52.5373, 39.1045, -5.6667, -111.4027, -0.7322, 71.1225, 0.4615, 0.6699, 0.4834, -0.3234, 0.0382, -0.0480, -0.0267, 1005.4300, 0.0000, 0.0000, 0.0000
1, 2.3101, 228, 0.0076, 0.9001, 0.3827, -10.5555, 6.0455, -9.1125, 54.3284, 37.7612, -5.6667, -111.4940, -0.8159, 71.1080, 0.4613, 0.6701, 0.4839, -0.3225, 0.0218, -0.0303, 0.0163, 1005.4300, 0.0000, 0.0000, 0.0000
1, 2.3201, 229, -0.0200, 0.9563, 0.4214, -14.9497, 8.1987, -7.5129, 54.6269, 38.5075, -5.3333, -111.6473, -0.9178, 71.0806, 0.4609, 0.6706, 0.4845, -0.3211, -0.0040, 0.0269, 0.0526, 1005.4300, 0.0000, 0.0000, 0.0000
2, 2.1899, 219, -1.0451, 0.0823, -0.1365, -46.0386, -4.2135, -75.8976, -48.6567, -1.4925, 28.1667, 54.3176, -71.7776, -92.3032, -0.6923, -0.1200, -0.6280, -0.3345, -0.0952, 0.3363, 0.0459, 1003.5900, 0.0000, 0.0000, 0.0000
2, 2.2000, 220, -1.0253, 0.0843, -0.1379, -40.0855, -4.8205, -67.0048, -47.0149, -1.7910, 28.1667, 55.1443, -71.2714, -93.6668, -0.6896, -0.1193, -0.6277, -0.3410, -0.0782, 0.3478, 0.0456, 1003.5900, 0.0000, 0.0000, 0.0000
1, 2.3301, 230, -0.0750, 1.0008, 0.4475, -15.7324, 8.1102, -6.3939, 54.9254, 37.1642, -5.1667, -111.8147, -1.0218, 71.0417, 0.4605, 0.6711, 0.4852, -0.3196, -0.0572, 0.0726, 0.0760, 1005.4300, 0.0000, 0.0000, 0.0000
2, 2.2100, 221, -1.0153, 0.0784, -0.1358, -33.8101, -7.1372, -59.1863, -49.8507, -0.2985, 28.5000, 55.8673, -70.8483, -94.8620, -0.6870, -0.1189, -0.6276, -0.3465, -0.0707, 0.3500, 0.0483, 1003.5900, 0.0000, 0.0000, 0.0000
2, 2.2200, 222, -1.0037, 0.0940, -0.0975, -26.7792, -11.0907, -53.1898, -46.7164, -3.8806, 28.1667, 56.5880, -70.5080, -95.9879, -0.6845, -0.1186, -0.6277, -0.3512, -0.0610, 0.3725, 0.0862, 1003.5900, 0.0000, 0.0000, 0.0000
1, 2.3401, 231, -0.1045, 1.0318, 0.4758, -13.5312, 2.4969, -4.5907, 51.3433, 39.7015, -5.1667, -111.9723, -1.1033, 71.0397, 0.4599, 0.6715, 0.4859, -0.3185, -0.0853, 0.1046, 0.1017, 1005.4300, 0.0000, 0.0000, 0.0000
1, 2.3499, 232, -0.0773, 1.0236, 0.5247, -12.5827, 0.1793, -6.3616, 55.6716, 37.0149, -5.0000, -112.1262, -1.1685, 71.0921, 0.4591, 0.6717, 0.4869, -0.3177, -0.0569, 0.0974, 0.1481, 1005.4300, 0.0000, 0.0000, 0.0000
1, 2.3599, 233, -0.0852, 0.9689, 0.5260, -4.7370, 7.3080, -10.4610, 56.4179, 37.3134, -4.5000, -112.2422, -1.2880, 71.1292, 0.4589, 0.6717, 0.4879, -0.3166, -0.0627, 0.0435, 0.1476, 1005.4300, 0.0000, 0.0000, 0.0000
2, 2.2300, 223, -0.9982, 0.1292, -0.0770, -14.3999, -11.7007, -46.7466, -48.8060, -1.9403, 28.1667, 57.3343, -70.2423, -97.0407, -0.6821, -0.1183, -0.6283, -0.3549, -0.0570, 0.4137, 0.1055, 1003.6800, 0.0000, 0.0000, 0.0000
2, 2.2400, 224, -0.9827, 0.1605, -0.0682, 0.1300, -14.0940, -41.5812, -46.5672, -2.9851, 28.8333, 58.1255, -70.0615, -98.0143, -0.6800, -0.1178, -0.6294, -0.3573, -0.0426, 0.4501, 0.1119, 1003.6800, 0.0000, 0.0000, 0.0000
2, 2.2500, 225, -0.9868, 0.1782, -0.0740, 16.1700, -17.1986, -37.9742, -48.2090, -4.3284, 29.0000, 59.0447, -69.9222, -98.9637, -0.6780, -0.1167, -0.6309, -0.3587, -0.0475, 0.4726, 0.1026, 1003.6800, 0.0000, 0.0000, 0.0000
2, 2.2600, 226, -0.9887, 0.1842, -0.1017, 28.4096, -19.7987, -34.0276, -48.2090, -3.7313, 29.1667, 60.0944, -69.8149, -99.9052, -0.6761, -0.1150, -0.6331, -0.3591, -0.0501, 0.4833, 0.0703, 1003.6800, 0.0000, 0.0000, 0.0000
1, 2.3699, 234, -0.1007, 0.8891, 0.4926, 1.7184, 17.3781, -11.6618, 53.1343, 38.9552, -4.8333, -112.2886, -1.4680, 71.1029, 0.4594, 0.6714, 0.4886, -0.3152, -0.0751, -0.0359, 0.1135, 1005.4300, 0.0000, 0.0000, 0.0000
1, 2.3799, 235, -0.0870, 0.8033, 0.4757, 6.7166, 19.5300, -10.4051, 51.9403, 39.5522, -5.0000, -112.2709, -1.6631, 71.0208, 0.4605, 0.6712, 0.4888, -0.3138, -0.0580, -0.1217, 0.0969, 1005.4300, 0.0000, 0.0000, 0.0000
2, 2.2698, 227, -1.0082, 0.1627, -0.1284, 38.7412, -22.9701, -28.8495, -49.1045, -3.5821, 29.1667, 61.2560, -69.7419, -100.8457, -0.6743, -0.1129, -0.6356, -0.3586, -0.0701, 0.4663, 0.0382, 1003.6800, 0.0000, 0.0000, 0.0000
2, 2.2798, 228, -1.0374, 0.1117, -0.1338, 45.7584, -24.8521, -23.6415, -48.9552, -5.3731, 30.0000, 62.5128, -69.7052, -101.7882, -0.6726, -0.1105, -0.6385, -0.3573, -0.0995, 0.4194, 0.0262, 1003.6800, 0.0000, 0.0000, 0.0000
2, 2.2898, 229, -1.0112, 0.0766, -0.1694, 44.1752, -24.6537, -17.5616, -47.1642, -5.2239, 30.6667, 63.7032, -69.7083, -102.6498, -0.6710, -0.1084, -0.6414, -0.3557, -0.0733, 0.3875, -0.0158, 1003.6800, 0.0000, 0.0000, 0.0000
1, 2.3899, 236, -0.0575, 0.7569, 0.4412, 9.4329, 23.6942, -6.2650, 52.6866, 39.5522, -4.3333, -112.2057, -1.8290, 70.8860, 0.4620, 0.6710, 0.4885, -0.3126, -0.0255, -0.1685, 0.0634, 1005.4300, 0.0000, 0.0000, 0.0000
1, 2.3999, 237, -0.0729, 0.7262, 0.3759, 8.2250, 29.5441, -2.9891, 53.2836, 38.2090, -4.8333, -112.1304, -1.9797, 70.6711, 0.4636, 0.6712, 0.4876, -0.3111, -0.0383, -0.1996, -0.0006, 1005.4300, 0.0000, 0.0000, 0.0000
1, 2.4099, 238, -0.0984, 0.6988, 0.3712, 9.4051, 31.8002, -0.7079, 50.8955, 40.0000, -4.5000, -112.0523, -2.1243, 70.4167, 0.4654, 0.6715, 0.4865, -0.3096, -0.0613, -0.2274, -0.0040, 1005.4300, 0.0000, 0.0000, 0.0000
1, 2.4199, 239, -0.0568, 0.7348, 0.2911, 18.0542, 33.9034, 0.8608, 54.6269, 38.8060, -4.5000, -111.9063, -2.2588, 70.1191, 0.4676, 0.6718, 0.4849, -0.3082, -0.0174, -0.1923, -0.0817, 1005.4300, 0.0000, 0.0000, 0.0000
2, 2.2998, 230, -0.9733, 0.0572, -0.1926, 35.3459, -23.3032, -11.1333, -46.8657, -4.4776, 30.8333, 64.6892, -69.7653, -103.3832, -0.6697, -0.1071, -0.6439, -0.3542, -0.0350, 0.3699, -0.0447, 1003.6800, 0.0000, 0.0000, 0.0000
2, 2.3098, 231, -0.9136, 0.0399, -0.2131, 25.8766, -24.2295, -6.4619, -47.0149, -3.5821, 31.1667, 65.4692, -69.8805, -104.0342, -0.6685, -0.1069, -0.6459, -0.3529, 0.0254, 0.3528, -0.0703, 1003.6800, 0.0000, 0.0000, 0.0000
2, 2.3198, 232, -0.8622, 0.0538, -0.2354, 15.7618, -23.7270, -2.0627, -49.1045, -2.9851, 31.3333, 66.0564, -70.0452, -104.6226, -0.6673, -0.1079, -0.6474, -0.3521, 0.0778, 0.3657, -0.0969, 1003.6800, 0.0000, 0.0000, 0.0000
2, 2.3298, 233, -0.8309, 0.0990, -0.2201, 7.6476, -24.6517, 1.3401, -47.0149, -2.2388, 30.8333, 66.4412, -70.2692, -105.1381, -0.6662, -0.1100, -0.6484, -0.3516, 0.1103, 0.4084, -0.0851, 1003.6800, 0.0000, 0.0000, 0.0000
2, 2.3398, 234, -0.8156, 0.1500, -0.2229, 6.3380, -24.6576, 4.0065, -48.0597, -4.0299, 31.1667, 66.7554, -70.5394, -105.6226, -0.6652, -0.1126, -0.6493, -0.3511, 0.1273, 0.4561, -0.0914, 1003.6800, 0.0000, 0.0000, 0.0000
1, 2.4299, 240, 0.0065, 0.8239, 0.1652, 22.8129, 24.3938, 3.4985, 52.5373, 39.8507, -5.0000, -111.6535, -2.3410, 69.8200, 0.4702, 0.6718, 0.4828, -0.3075, 0.0473, -0.1047, -0.2035, 1005.4300, 0.0000, 0.0000, 0.0000
1, 2.4399, 241, 0.0438, 0.9452, 0.1527, 16.0252, 15.6463, 6.9600, 55.5224, 39.2537, -5.0000, -111.4088, -2.3386, 69.5770, 0.4723, 0.6718, 0.4807, -0.3076, 0.0846, 0.0150, -0.2120, 1005.4300, 0.0000, 0.0000, 0.0000
2, 2.3499, 235, -0.7685, 0.2072, -0.2486, 14.3454, -25.3956, 7.8881, -46.5672, -4.1791, 32.0000, 67.1167, -70.8219, -106.0754, -0.6643, -0.1149, -0.6503, -0.3501, 0.1760, 0.5098, -0.1208, 1003.6800, 0.0000, 0.0000, 0.0000
1, 2.4500, 242, 0.1026, 1.0331, 0.1645, 11.7865, 16.1003, 8.1951, 53.7313, 38.3582, -5.0000, -111.2186, -2.2860, 69.3218, 0.4739, 0.6722, 0.4785, -0.3076, 0.1425, 0.1016, -0.1971, 1005.4300, 0.0000, 0.0000, 0.0000
1, 2.4600, 243, 0.1187, 1.1470, 0.0950, 13.2534, 17.2956, 10.2588, 53.4328, 37.9104, -4.6667, -111.0234, -2.2216, 69.0572, 0.4755, 0.6727, 0.4761, -0.3077, 0.1574, 0.2143, -0.2635, 1005.4300, 0.0000, 0.0000, 0.0000
2, 2.3599, 236, -0.7351, 0.2505, -0.2749, 24.0988, -25.4941, 11.7194, -48.0597, -3.2836, 32.1667, 67.5892, -71.1170, -106.4992, -0.6637, -0.1165, -0.6517, -0.3482, 0.2111, 0.5497, -0.1515, 1003.6800, 0.0000, 0.0000, 0.0000
2, 2.3699, 237, -0.7176, 0.2840, -0.2819, 33.2528, -23.9534, 16.4721, -50.0000, -4.1791, 32.3333, 68.1087, -71.4349, -106.8583, -0.6633, -0.1176, -0.6533, -0.3455, 0.2304, 0.5794, -0.1632, 1003.6800, 0.0000, 0.0000, 0.0000
1, 2.4700, 244, 0.1013, 1.2509, 0.0431, 6.8537, 18.4356, 12.3260, 54.3284, 38.5075, -5.0000, -110.8690, -2.1550, 68.7854, 0.4768, 0.6734, 0.4739, -0.3076, 0.1389, 0.3172, -0.3128, 1005.4300, 0.0000, 0.0000, 0.0000
2, 2.3799, 238, -0.7255, 0.2899, -0.2899, 41.6727, -25.2656, 21.2647, -47.9104, -2.8358, 32.3333, 68.7140, -71.7913, -107.1945, -0.6632, -0.1183, -0.6552, -0.3419, 0.2244, 0.5810, -0.1765, 1003.6800, 0.0000, 0.0000, 0.0000
2, 2.3899, 239, -0.7590, 0.2701, -0.2851, 46.5957, -22.9352, 26.6945, -49.2537, -1.9403, 32.8333, 69.3353, -72.1823, -107.4698, -0.6633, -0.1187, -0.6572, -0.3377, 0.1930, 0.5564, -0.1771, 1003.6800, 0.0000, 0.0000, 0.0000
1, 2.4800, 245, 0.0402, 1.3439, 0.1102, -4.8229, 21.7640, 12.1137, 55.3731, 38.0597, -5.0000, -110.8259, -2.0913, 68.5127, 0.4776, 0.6745, 0.4719, -0.3071, 0.0767, 0.4099, -0.2451, 1005.4300, 0.0000, 0.0000, 0.0000
2, 2.3999, 240, -0.7885, 0.2446, -0.3041, 46.6242, -21.4526, 31.8964, -45.9701, -3.7313, 32.8333, 69.8971, -72.6105, -107.6575, -0.6637, -0.1193, -0.6591, -0.3331, 0.1658, 0.5253, -0.2014, 1003.6800, 0.0000, 0.0000, 0.0000
1, 2.4900, 246, -0.0718, 1.3354, 0.1633, -11.0687, 25.0098, 3.2875, 51.0448, 40.8955, -5.1667, -110.8832, -2.1075, 68.2388, 0.4780, 0.6758, 0.4705, -0.3056, -0.0350, 0.4017, -0.1929, 1005.4300, 0.0000, 0.0000, 0.0000
2, 2.4099, 241, -0.8119, 0.2113, -0.3132, 46.9972, -17.8262, 35.8381, -47.9104, -1.6418, 33.0000, 70.3327, -73.0651, -107.7094, -0.6643, -0.1200, -0.6607, -0.3282, 0.1448, 0.4856, -0.2152, 1003.6800, 0.0000, 0.0000, 0.0000
1, 2.5000, 247, -0.1679, 1.2707, 0.1615, -10.0538, 29.4904, -3.3552, 56.2687, 38.6567, -4.6667, -110.9540, -2.2139, 67.9678, 0.4787, 0.6769, 0.4695, -0.3035, -0.1292, 0.3376, -0.1959, 1005.4300, 0.0000, 0.0000, 0.0000
1, 2.5100, 248, -0.2013, 1.2062, 0.1685, -10.3077, 33.5534, -18.2488, 52.3881, 39.1045, -4.5000, -111.0183, -2.4610, 67.6960, 0.4801, 0.6776, 0.4691, -0.3006, -0.1583, 0.2735, -0.1899, 1005.4300, 0.0000, 0.0000, 0.0000
2, 2.4199, 242, -0.8536, 0.2348, -0.3318, 41.6476, -16.1879, 39.6291, -46.4179, -2.0896, 33.3333, 70.6239, -73.5467, -107.6425, -0.6652, -0.1210, -0.6621, -0.3233, 0.1054, 0.5020, -0.2378, 1003.6800, 0.0000, 0.0000, 0.0000
2, 2.4299, 243, -0.8659, 0.2660, -0.3098, 40.5648, -12.4967, 46.5119, -48.2090, -2.0896, 33.6667, 70.7079, -74.0838, -107.3916, -0.6663, -0.1225, -0.6631, -0.3183, 0.0958, 0.5249, -0.2192, 1003.6800, 0.0000, 0.0000, 0.0000
1, 2.5200, 249, -0.1661, 1.1376, 0.2047, -8.9718, 24.7774, -26.6867, 54.6269, 38.2090, -4.0000, -111.0802, -2.8100, 67.5065, 0.4815, 0.6776, 0.4695, -0.2975, -0.1171, 0.2056, -0.1546, 1005.4300, 0.0000, 0.0000, 0.0000
2, 2.4399, 244, -0.8839, 0.2837, -0.3179, 43.6703, -9.5188, 51.1124, -47.6119, -0.5970, 33.5000, 70.6375, -74.6564, -106.9625, -0.6678, -0.1241, -0.6639, -0.3128, 0.0805, 0.5333, -0.2302, 1003.6800, 0.0000, 0.0000, 0.0000
2, 2.4500, 245, -0.9199, 0.3229, -0.3242, 47.4363, -6.4775, 57.9759, -45.6716, -0.7463, 33.5000, 70.4189, -75.2723, -106.3406, -0.6697, -0.1257, -0.6645, -0.3068, 0.0473, 0.5624, -0.2390, 1003.6800, 0.0000, 0.0000, 0.0000
1, 2.5300, 250, -0.1152, 1.0790, 0.2209, -5.4040, 18.9877, -27.4078, 51.9403, 38.6567, -4.0000, -111.1084, -3.1498, 67.3966, 0.4830, 0.6772, 0.4703, -0.2948, -0.0603, 0.1475, -0.1387, 1005.4300, 0.0000, 0.0000, 0.0000
1, 2.5400, 251, -0.0701, 1.0168, 0.1966, -5.3712, 20.3597, -22.8908, 52.9851, 38.3582, -4.3333, -111.1220, -3.4538, 67.2779, 0.4844, 0.6769, 0.4708, -0.2924, -0.0098, 0.0857, -0.1631, 1005.4300, 0.0000, 0.0000, 0.0000
1, 2.5500, 252, -0.0289, 0.9545, 0.1823, -7.8925, 26.6265, -19.6226, 54.1791, 38.2090, -4.1667, -111.1392, -3.7235, 67.0909, 0.4858, 0.6769, 0.4709, -0.2899, 0.0361, 0.0238, -0.1776, 1005.4300, 0.0000, 0.0000, 0.0000
1, 2.5601, 253, -0.0190, 0.8824, 0.1736, -10.5519, 30.0441, -15.6044, 51.9403, 38.8060, -4.5000, -111.1875, -3.9782, 66.8488, 0.4871, 0.6774, 0.4706, -0.2872, 0.0503, -0.0478, -0.1870, 1005.4100, 0.0000, 0.0000, 0.0000
1, 2.5701, 254, -0.0544, 0.8081, 0.1764, -12.9688, 31.1680, -9.4205, 50.8955, 39.4030, -4.3333, -111.2616, -4.2039, 66.5739, 0.4882, 0.6782, 0.4700, -0.2843, 0.0189, -0.1214, -0.1852, 1005.4100, 0.0000, 0.0000, 0.0000
2, 2.4600, 246, -0.9559, 0.3639, -0.3245, 52.9342, -4.6582, 66.9775, -49.8507, 1.0448, 33.5000, 70.0475, -75.9528, -105.5005, -0.6718, -0.1273, -0.6651, -0.3001, 0.0142, 0.5921, -0.2417, 1003.6800, 0.0000, 0.0000, 0.0000
2, 2.4700, 247, -0.9958, 0.3874, -0.3192, 57.0175, -2.9817, 76.7532, -47.1642, 2.5373, 33.6667, 69.4746, -76.7000, -104.4052, -0.6743, -0.1290, -0.6656, -0.2926, -0.0226, 0.6028, -0.2386, 1003.6800, 0.0000, 0.0000, 0.0000
1, 2.5801, 255, -0.0996, 0.7960, 0.2020, -15.1138, 25.4560, -1.2486, 49.1045, 39.7015, -4.3333, -111.3600, -4.3491, 66.3214, 0.4888, 0.6792, 0.4693, -0.2819, -0.0238, -0.1326, -0.1611, 1005.4100, 0.0000, 0.0000, 0.0000
1, 2.5901, 256, -0.1291, 0.8231, 0.2283, -14.5285, 20.7795, 4.8429, 50.7463, 37.0149, -3.5000, -111.4703, -4.4084, 66.1003, 0.4889, 0.6804, 0.4685, -0.2802, -0.0522, -0.1048, -0.1367, 1005.4100, 0.0000, 0.0000, 0.0000
2, 2.4800, 248, -1.0358, 0.4205, -0.3098, 62.1058, -0.1707, 88.3438, -47.4627, 2.8358, 33.1667, 68.5762, -77.5369, -102.9174, -0.6773, -0.1310, -0.6659, -0.2841, -0.0594, 0.6214, -0.2310, 1003.6800, 0.0000, 0.0000, 0.0000
2, 2.4900, 249, -1.0754, 0.4125, -0.2971, 66.5270, 3.2074, 101.5250, -46.2687, 3.1343, 33.0000, 67.2261, -78.4666, -100.9234, -0.6807, -0.1332, -0.6660, -0.2746, -0.0956, 0.5969, -0.2197, 1003.6800, 0.0000, 0.0000, 0.0000
1, 2.5999, 257, -0.1585, 0.8834, 0.2366, -12.3532, 17.0044, 7.3648, 49.1045, 37.7612, -3.3333, -111.5576, -4.4340, 65.9049, 0.4890, 0.6815, 0.4677, -0.2788, -0.0812, -0.0438, -0.1297, 1005.4100, 0.0000, 0.0000, 0.0000
1, 2.6099, 258, -0.1685, 0.9182, 0.2733, -9.0939, 12.6206, 7.7789, 52.8358, 38.8060, -3.6667, -111.6111, -4.4440, 65.7526, 0.4890, 0.6823, 0.4670, -0.2779, -0.0910, -0.0087, -0.0939, 1005.4100, 0.0000, 0.0000, 0.0000
1, 2.6199, 259, -0.1606, 0.9164, 0.2633, -7.3956, 8.7371, 6.8464, 47.7612, 40.0000, -3.1667, -111.6428, -4.4559, 65.6419, 0.4892, 0.6829, 0.4664, -0.2772, -0.0829, -0.0103, -0.1044, 1005.4100, 0.0000, 0.0000, 0.0000
1, 2.6299, 260, -0.1526, 0.9089, 0.2309, -5.7915, 4.3764, 4.0083, 52.5373, 37.9104, -3.1667, -111.6295, -4.4793, 65.5556, 0.4895, 0.6831, 0.4660, -0.2768, -0.0745, -0.0179, -0.1366, 1005.4100, 0.0000, 0.0000, 0.0000
1, 2.6399, 261, -0.0957, 0.9051, 0.2275, -3.6257, 1.7334, 0.2739, 52.3881, 39.5522, -3.5000, -111.5337, -4.5027, 65.4478, 0.4905, 0.6831, 0.4652, -0.2766, -0.0172, -0.0222, -0.1384, 1005.4100, 0.0000, 0.0000, 0.0000
1, 2.6499, 262, -0.0938, 0.8798, 0.2232, -2.1400, 0.5147, -4.2994, 50.0000, 38.8060, -3.1667, -111.4198, -4.5620, 65.3614, 0.4916, 0.6827, 0.4646, -0.2763, -0.0142, -0.0482, -0.1408, 1005.4100, 0.0000, 0.0000, 0.0000
2, 2.5000, 250, -1.1270, 0.4182, -0.2884, 71.6231, 5.0901, 113.3727, -50.4478, 6.8657, 33.3333, 65.3114, -79.4762, -98.2985, -0.6844, -0.1357, -0.6659, -0.2641, -0.1438, 0.5842, -0.2121, 1003.6800, 0.0000, 0.0000, 0.0000
2, 2.5100, 251, -1.1705, 0.4023, -0.2699, 74.8617, 7.4826, 122.7808, -47.1642, 7.1642, 32.5000, 62.5803, -80.5474, -94.8132, -0.6884, -0.1385, -0.6656, -0.2528, -0.1841, 0.5481, -0.1943, 1003.6800, 0.0000, 0.0000, 0.0000
2, 2.5198, 252, -1.2098, 0.3688, -0.2536, 75.3065, 9.5240, 131.7828, -47.4627, 8.5075, 32.6667, 58.6995, -81.6487, -90.1549, -0.6926, -0.1416, -0.6650, -0.2408, -0.2204, 0.4929, -0.1781, 1003.6800, 0.0000, 0.0000, 0.0000
1, 2.6599, 263, -0.0957, 0.8700, 0.2251, -1.7640, 1.0656, -9.0789, 51.6418, 37.1642, -3.1667, -111.3445, -4.6541, 65.3231, 0.4925, 0.6823, 0.4646, -0.2759, -0.0146, -0.0583, -0.1376, 1005.4100, 0.0000, 0.0000, 0.0000
1, 2.6699, 264, -0.1153, 0.8741, 0.2047, -0.7865, -0.5252, -12.3924, 51.7910, 39.8507, -3.8333, -111.2779, -4.7774, 65.3149, 0.4933, 0.6817, 0.4649, -0.2753, -0.0320, -0.0545, -0.1570, 1005.4100, 0.0000, 0.0000, 0.0000
2, 2.5298, 253, -1.2193, 0.3277, -0.2763, 75.1144, 13.7108, 139.4832, -50.8955, 10.8955, 32.1667, 52.9331, -82.7308, -83.6043, -0.6972, -0.1450, -0.6640, -0.2283, -0.2273, 0.4286, -0.2000, 1003.6800, 0.0000, 0.0000, 0.0000
2, 2.5398, 254, -1.2269, 0.3082, -0.3006, 71.6227, 17.4018, 147.7296, -47.4627, 11.4925, 31.8333, 44.4348, -83.7240, -74.3328, -0.7019, -0.1488, -0.6624, -0.2154, -0.2329, 0.3847, -0.2225, 1003.6800, 0.0000, 0.0000, 0.0000
1, 2.6799, 265, -0.1251, 0.8721, 0.2025, 0.6558, -2.6204, -14.7205, 51.1940, 38.6567, -3.6667, -111.2120, -4.9254, 65.3535, 0.4942, 0.6808, 0.4655, -0.2749, -0.0392, -0.0567, -0.1580, 1005.4100, 0.0000, 0.0000, 0.0000
2, 2.5498, 255, -1.2088, 0.2848, -0.3183, 62.8612, 23.0306, 155.0314, -46.1194, 13.5821, 31.0000, 31.9829, -84.5082, -61.1716, -0.7068, -0.1534, -0.6602, -0.2026, -0.2134, 0.3355, -0.2372, 1003.6800, 0.0000, 0.0000, 0.0000
2, 2.5598, 256, -1.1748, 0.2555, -0.3258, 52.2759, 26.8149, 159.7685, -51.4925, 15.8209, 31.1667, 15.5422, -84.9142, -44.1049, -0.7118, -0.1587, -0.6574, -0.1899, -0.1788, 0.2792, -0.2404, 1003.6800, 0.0000, 0.0000, 0.0000
2, 2.5698, 257, -1.1745, 0.2142, -0.3145, 39.5919, 29.6739, 164.8831, -46.2687, 15.2239, 30.5000, -2.6791, -84.8034, -25.3795, -0.7167, -0.1649, -0.6539, -0.1775, -0.1786, 0.2100, -0.2241, 1003.6800, 0.0000, 0.0000, 0.0000
2, 2.5798, 258, -1.1471, 0.2516, -0.3113, 29.1412, 30.1079, 168.4986, -48.5075, 19.1045, 29.8333, -19.0560, -84.1609, -8.6189, -0.7216, -0.1722, -0.6498, -0.1656, -0.1523, 0.2183, -0.2151, 1003.6800, 0.0000, 0.0000, 0.0000
1, 2.6899, 266, -0.1211, 0.8702, 0.2005, 0.0196, -3.1308, -13.8852, 50.1493, 39.8507, -3.3333, -111.1527, -5.0713, 65.4032, 0.4950, 0.6799, 0.4663, -0.2744, -0.0327, -0.0588, -0.1589, 1005.4100, 0.0000, 0.0000, 0.0000
1, 2.7000, 267, -0.1113, 0.8429, 0.1983, 3.5637, -3.1991, -11.8143, 51.0448, 38.9552, -3.3333, -111.0794, -5.2006, 65.4518, 0.4958, 0.6790, 0.4669, -0.2741, -0.0207, -0.0864, -0.1599, 1005.4100, 0.0000, 0.0000, 0.0000
2, 2.5898, 259, -1.1573, 0.2691, -0.2894, 15.1501, 31.1975, 169.5367, -45.2239, 19.5522, 29.5000, -31.4968, -83.1381, 4.0814, -0.7260, -0.1802, -0.6454, -0.1543, -0.1644, 0.2067, -0.1876, 1003.6800, 0.0000, 0.0000, 0.0000
2, 2.5999, 260, -1.1697, 0.3140, -0.2633, 5.7016, 32.3485, 171.4670, -44.6269, 20.4478, 28.8333, -40.5561, -81.8552, 13.2932, -0.7302, -0.1890, -0.6407, -0.1435, -0.1797, 0.2219, -0.1556, 1003.6800, 0.0000, 0.0000, 0.0000
1, 2.7100, 268, -0.0994, 0.8511, 0.1621, 6.8503, -3.8296, -10.4540, 49.4030, 38.8060, -3.1667, -110.9662, -5.3031, 65.4826, 0.4967, 0.6781, 0.4672, -0.2741, -0.0070, -0.0787, -0.1942, 1005.4100, 0.0000, 0.0000, 0.0000
2, 2.6099, 261, -1.1915, 0.3060, -0.2421, 0.4645, 32.0034, 170.3990, -47.7612, 23.7313, 28.6667, -47.0301, -80.4234, 19.8573, -0.7342, -0.1981, -0.6357, -0.1330, -0.2054, 0.1843, -0.1287, 1003.6800, 0.0000, 0.0000, 0.0000
2, 2.6199, 262, -1.2194, 0.3236, -0.2346, -4.4936, 33.3738, 168.1277, -45.6716, 24.6269, 27.8333, -51.7014, -78.9156, 24.5693, -0.7379, -0.2073, -0.6305, -0.1229, -0.2380, 0.1727, -0.1155, 1003.6800, 0.0000, 0.0000, 0.0000
2, 2.6299, 263, -1.2313, 0.3255, -0.2369, -9.0135, 34.5319, 165.0323, -44.9254, 25.2239, 27.6667, -55.2124, -77.3681, 28.0713, -0.7413, -0.2166, -0.6251, -0.1132, -0.2555, 0.1459, -0.1121, 1003.6800, 0.0000, 0.0000, 0.0000
2, 2.6399, 264, -1.2473, 0.3332, -0.2134, -14.0848, 34.8344, 162.0326, -45.5224, 26.5672, 27.3333, -57.8870, -75.8078, 30.6887, -0.7445, -0.2260, -0.6195, -0.1040, -0.2778, 0.1255, -0.0830, 1003.6800, 0.0000, 0.0000, 0.0000
1, 2.7200, 269, -0.0661, 0.8433, 0.1624, 5.7772, -3.7849, -8.7028, 48.8060, 41.1940, -4.1667, -110.8468, -5.3750, 65.4947, 0.4977, 0.6773, 0.4673, -0.2742, 0.0276, -0.0871, -0.1919, 1005.4100, 0.0000, 0.0000, 0.0000
1, 2.7300, 270, -0.0563, 0.8531, 0.1606, 6.3155, -2.8965, -5.1006, 50.5970, 40.0000, -4.1667, -110.7104, -5.4089, 65.4606, 0.4987, 0.6768, 0.4669, -0.2744, 0.0380, -0.0781, -0.1914, 1005.4100, 0.0000, 0.0000, 0.0000
2, 2.6499, 265, -1.2830, 0.3270, -0.1806, -20.1794, 34.7144, 157.7230, -46.8657, 29.4030, 27.5000, -60.0139, -74.2607, 32.7071, -0.7475, -0.2354, -0.6138, -0.0953, -0.3205, 0.0921, -0.0450, 1003.6800, 0.0000, 0.0000, 0.0000
2, 2.6599, 266, -1.2908, 0.3133, -0.1771, -26.8408, 35.6671, 152.9265, -43.2836, 30.4478, 26.3333, -61.7492, -72.7432, 34.2663, -0.7501, -0.2449, -0.6081, -0.0872, -0.3358, 0.0519, -0.0366, 1003.6800, 0.0000, 0.0000, 0.0000
2, 2.6699, 267, -1.2908, 0.2994, -0.1554, -36.0764, 36.4844, 147.0404, -42.9851, 31.9403, 26.5000, -63.2138, -71.2577, 35.4655, -0.7523, -0.2546, -0.6023, -0.0800, -0.3438, 0.0126, -0.0106, 1003.6800, 0.0000, 0.0000, 0.0000
2, 2.6799, 268, -1.2887, 0.2896, -0.1555, -48.6344, 34.5257, 140.7373, -42.9851, 31.1940, 26.5000, -64.5494, -69.8220, 36.4227, -0.7541, -0.2647, -0.5965, -0.0736, -0.3501, -0.0218, -0.0073, 1003.6800, 0.0000, 0.0000, 0.0000
2, 2.6899, 269, -1.3006, 0.2816, -0.1341, -60.8244, 30.5671, 134.9603, -43.2836, 33.1343, 26.1667, -65.8562, -68.4463, 37.2388, -0.7553, -0.2752, -0.5909, -0.0681, -0.3705, -0.0536, 0.0162, 1003.6800, 0.0000, 0.0000, 0.0000
2, 2.7000, 270, -1.3780, 0.2951, -0.1319, -73.4896, 23.9779, 126.3080, -42.5373, 33.2836, 26.3333, -67.2209, -67.1590, 37.9795, -0.7557, -0.2862, -0.5856, -0.0637, -0.4564, -0.0628, 0.0184, 1003.6800, 0.0000, 0.0000, 0.0000
1, 2.7400, 271, -0.0620, 0.8728, 0.1385, 8.8401, -2.3577, -0.7101, 51.4925, 40.0000, -4.1667, -110.5359, -5.4121, 65.3856, 0.4999, 0.6763, 0.4660, -0.2747, 0.0323, -0.0594, -0.2107, 1005.4100, 0.0000, 0.0000, 0.0000
1, 2.7500, 272, -0.0913, 0.8945, 0.1100, 7.8382, -2.0609, 4.0710, 53.4328, 39.5522, -3.6667, -110.3242, -5.3796, 65.2745, 0.5013, 0.6760, 0.4647, -0.2753, 0.0024, -0.0391, -0.2358, 1005.4100, 0.0000, 0.0000, 0.0000
1, 2.7600, 273, -0.1109, 0.9531, 0.0982, 6.0826, -3.6894, 9.1116, 52.2388, 38.0597, -4.0000, -110.1258, -5.2963, 65.1700, 0.5024, 0.6758, 0.4633, -0.2762, -0.0186, 0.0182, -0.2444, 1005.4100, 0.0000, 0.0000, 0.0000
2, 2.7100, 271, -1.4594, 0.3046, -0.1081, -83.8802, 18.0219, 119.4426, -39.4030, 34.6269, 26.5000, -68.6476, -65.9668, 38.6778, -0.7553, -0.2974, -0.5809, -0.0602, -0.5461, -0.0747, 0.0402, 1003.6800, 0.0000, 0.0000, 0.0000
2, 2.7200, 272, -1.5130, 0.3122, -0.0915, -94.0639, 15.2829, 110.3598, -38.3582, 35.2239, 27.0000, -70.0949, -64.8555, 39.2904, -0.7543, -0.3089, -0.5764, -0.0577, -0.6078, -0.0873, 0.0532, 1003.6800, 0.0000, 0.0000, 0.0000
2, 2.7300, 273, -1.5130, 0.3083, -0.0856, -103.1655, 15.0382, 101.6620, -41.1940, 35.6716, 27.1667, -71.5210, -63.8254, 39.7834, -0.7528, -0.3205, -0.5722, -0.0561, -0.6155, -0.1101, 0.0543, 1003.6100, 0.0000, 0.0000, 0.0000
